#timestamp [ns],w_RS_S_x [rad s^-1],w_RS_S_y [rad s^-1],w_RS_S_z [rad s^-1],a_RS_S_x [m s^-2],a_RS_S_y [m s^-2],a_RS_S_z [m s^-2]
1520527958474741167,-0.1007931761,0.0516897516,0.0603467801,0.9296921410,0.4616013360,9.7992666975
1520527958479757167,-0.1038251337,0.0376933716,0.0634922234,0.8996279482,0.4484131328,9.7577350043
1520527958484773167,-0.1015766443,0.0274936140,0.0642218526,0.8960202451,0.4232314649,9.6996874779
1520527958489789167,-0.1000774331,0.0202052210,0.0657867505,0.8815894325,0.4484145377,9.6742362154
1520527958494807167,-0.0935481093,0.0161247553,0.0670962220,0.8731714585,0.4028478572,9.6243903957
1520527958499822167,-0.0855090990,0.0140874857,0.0673362711,0.8503226720,0.3896590921,9.5862749040
1520527958504837167,-0.0777227989,0.0097132140,0.0697233695,0.8202584792,0.3848648719,9.5726264803
1520527958509852167,-0.0639102469,0.0044795351,0.0674933170,0.7877891509,0.3836682603,9.5834029818
1520527958514870167,-0.0536208888,-0.0024950883,0.0620099094,0.7312684684,0.3872700836,9.5746524598
1520527958519885167,-0.0450902266,-0.0091790163,0.0565319919,0.7060145464,0.3848737696,9.6062784914
1520527958524900167,-0.0343020972,-0.0184823337,0.0502182285,0.7444967133,0.3548922619,9.6117438828
1520527958529917167,-0.0247713832,-0.0274903882,0.0422857464,0.7000017079,0.3500991656,9.6307759505
1520527958534933167,-0.0122332182,-0.0408607449,0.0316088584,0.6603169733,0.3417082735,9.6137382435
1520527958539949167,-0.0054774744,-0.0548103076,0.0187738916,0.6747477859,0.3417071495,9.5578148730
1520527958544964167,0.0032878249,-0.0690490104,0.0053918762,0.7048119787,0.3285142634,9.5412650940
1520527958549980167,0.0123093941,-0.0797917288,-0.0076933830,0.7348761716,0.2721523220,9.5305681309
1520527958554997167,0.0203300335,-0.0882074070,-0.0194062611,0.8058276666,0.2421682855,9.5252581902
1520527958560012167,0.0265983515,-0.0934265573,-0.0281154134,0.7829788801,0.2289795203,9.4824941227
1520527958565029167,0.0323662243,-0.0983603475,-0.0346570420,0.7288633330,0.2697545094,9.5201696993
1520527958570044167,0.0383926995,-0.0977570047,-0.0414274446,0.6687349473,0.2877462988,9.5207374120
1520527958575059167,0.0406500491,-0.0951074343,-0.0511512896,0.6458861608,0.2973412017,9.5488419083
1520527958580075167,0.0426725931,-0.0822682451,-0.0575503091,0.6326579159,0.2505757555,9.5722591472
1520527958585092167,0.0434369649,-0.0729363606,-0.0601860295,0.5809475043,0.2541772041,9.6076232752
1520527958590107167,0.0452073711,-0.0618506760,-0.0647040995,0.4823369518,0.3057479224,9.5980735127
1520527958595124167,0.0442023640,-0.0571685213,-0.0722419484,0.4282214047,0.3033538563,9.5962782910
1520527958600139167,0.0414416092,-0.0498638667,-0.0800270683,0.4270188370,0.2805702819,9.6288522442
1520527958605154167,0.0419485742,-0.0422680044,-0.0872749407,0.4198034308,0.2122198397,9.5755305050
1520527958610170167,0.0444632875,-0.0375895704,-0.0929255024,0.4582855976,0.1930305958,9.6077146833
1520527958615187167,0.0442187710,-0.0300020162,-0.0971959698,0.4703112747,0.1810382550,9.5309078252
1520527958620204167,0.0434755303,-0.0189151309,-0.1025210103,0.4931600612,0.2349977945,9.4434720123
1520527958625218167,0.0460065172,-0.0040462512,-0.1051177591,0.4751215456,0.2973545014,9.3215616673
1520527958630235167,0.0548278118,0.0187019418,-0.1111832494,0.5172114155,0.4124687040,9.1908796109
1520527958635251167,0.0629040386,0.0425913393,-0.1083104326,0.5111985769,0.5743531294,9.2256445940
1520527958640267167,0.0687160159,0.0615124736,-0.1003308357,0.4426522173,0.6475060339,9.2913205139
1520527958645282167,0.0722676289,0.0833553082,-0.0955713582,0.4510701913,0.6235225698,9.3551798828
1520527958650298167,0.0760659734,0.1049206969,-0.0959549425,0.4775266810,0.6271179305,9.3828103185
1520527958655315167,0.0811233995,0.1253071996,-0.0912093808,0.5617064209,0.6942632381,9.5144098923
1520527958660329167,0.0778877761,0.1410079047,-0.0789087014,0.6326579159,0.7686044184,9.6159154629
1520527958665347167,0.0723910316,0.1558277428,-0.0644461237,0.6951914370,0.8081711820,9.7175368797
1520527958670361167,0.0661332594,0.1639388854,-0.0475983637,0.6891785985,0.8525398460,9.7698486174
1520527958675377167,0.0561074475,0.1697021780,-0.0250799237,0.6843683276,0.8993066971,9.7721741213
1520527958680394167,0.0485874613,0.1734413320,-0.0079926304,0.6170245357,0.9113033463,9.8541679879
1520527958685409167,0.0377876608,0.1696119496,0.0057963793,0.6098091294,0.8885202402,9.9007461938
1520527958690426167,0.0244743388,0.1634417652,0.0228188222,0.6314553482,0.8477477800,9.9412502987
1520527958695442167,0.0119147329,0.1555162847,0.0425319855,0.5881629106,0.8297640454,9.9858506911
1520527958700457167,-0.0009016212,0.1458525966,0.0584446344,0.5376550666,0.8153782940,9.9596270246
1520527958705473167,-0.0109605880,0.1338712987,0.0697350845,0.4835395195,0.7698151726,9.9450903156
1520527958710488167,-0.0215171344,0.1265563269,0.0794387620,0.4101828891,0.6990716009,9.9853862095
1520527958715505167,-0.0303189837,0.1177931343,0.0861520521,0.3440416648,0.6307257481,10.0279338223
1520527958720520167,-0.0363589177,0.1087461961,0.0904230722,0.3440416648,0.5180065483,10.0013144293
1520527958725535167,-0.0421446871,0.1040803224,0.0909393293,0.3704981545,0.4532509049,10.0232007975
1520527958730552167,-0.0486836983,0.0979484894,0.0946924218,0.3416365294,0.3609193401,10.0235717580
1520527958735569167,-0.0522090954,0.0932878723,0.0935812030,0.2358105707,0.2601997866,9.9828628451
1520527958740584167,-0.0547309634,0.0895112722,0.0889576899,0.1636565079,0.1882569808,9.9801488770
1520527958745601167,-0.0585127952,0.0854529934,0.0805466448,0.0806793357,0.1199124392,9.9891581859
1520527958750617167,-0.0540018439,0.0849106034,0.0661948651,0.0169432469,0.0851423309,9.9921367526
1520527958755632167,-0.0479729379,0.0913598475,0.0527052768,0.0361843303,0.0995305174,9.7246423302
1520527958760647167,-0.0399181988,0.1091738758,0.0392986551,0.0458048720,0.1391014021,9.6199171456
1520527958765664167,-0.0311131229,0.1258292172,0.0234468278,0.1696693465,0.1235029297,9.6210510141
1520527958770681167,-0.0222916009,0.1515036388,0.0128042881,0.1865052944,0.0935231078,9.4709998067
1520527958775694167,-0.0167338862,0.1786300609,0.0035316608,0.2069489456,0.0815301114,9.3859760055
1520527958780712167,-0.0101619122,0.2127515624,-0.0062305712,0.2442285447,0.0107779229,9.2927106234
1520527958785728167,-0.0060991903,0.2483231745,-0.0138126533,0.2875209823,0.0119736916,9.2306944425
1520527958790743167,-0.0037903735,0.2859257764,-0.0183999020,0.3091672012,0.0527427801,9.2269575621
1520527958795759167,-0.0024863560,0.3238193690,-0.0229830606,0.2935338209,0.0911164912,9.1468843761
1520527958800776167,-0.0029415206,0.3608344767,-0.0262168920,0.2526465187,0.0863231140,9.0915041156
1520527958805791167,-0.0036542291,0.3940651292,-0.0308318862,0.2706850343,0.1007113942,9.0459908935
1520527958810806167,-0.0066300777,0.4267143118,-0.0362587638,0.2598619249,0.0467509181,9.1158774965
1520527958815823167,-0.0111227402,0.4520753768,-0.0406562346,0.2069489456,0.0347636349,9.1849707057
1520527958820839167,-0.0166289484,0.4745367713,-0.0504849872,-0.0095132428,-0.0287739488,9.3138132818
1520527958825854167,-0.0181454211,0.4798335491,-0.0699214759,-0.2680653011,-0.2266119818,9.3502249846
1520527958830871167,-0.0179495019,0.4595285130,-0.1041663414,-0.3979426141,-0.4316548789,9.9862196867
1520527958835886167,-0.0218690302,0.3742642765,-0.1467453185,-0.3750938275,-0.5263887519,10.6322417070
1520527958840902167,-0.0220368159,0.2723765733,-0.1835060025,-0.4941480311,-0.6906617175,10.6626143059
1520527958845919167,-0.0136739002,0.1620486221,-0.2227819376,-0.6745331880,-0.8609256087,10.9283427881
1520527958850934167,-0.0025879559,0.0249304030,-0.2682195403,-0.7875745530,-0.9676403023,11.2049752518
1520527958855950167,0.0150154413,-0.1220828607,-0.3172619593,-0.8946030795,-1.0731563238,11.0248254468
1520527958860965167,0.0404336479,-0.2524907100,-0.3637572178,-0.7947899593,-1.1523073656,10.7078279480
1520527958865982167,0.0754380697,-0.3590158554,-0.4046770009,-0.7154204903,-1.1499152663,10.2793841004
1520527958871000167,0.1162576875,-0.4416546748,-0.4419081289,-0.5939611513,-1.0671840367,9.8911272685
1520527958876013167,0.1656690945,-0.4960564415,-0.4675765587,-0.3714861244,-0.8813345982,9.5912717332
1520527958881030167,0.2153712005,-0.5289291626,-0.4806358356,-0.1261623109,-0.5503909480,9.3875102600
1520527958886046167,0.2618500441,-0.5376539411,-0.4802477802,0.0662485231,-0.2290363001,9.2354074980
1520527958891061167,0.3030749152,-0.5347501726,-0.4705624397,0.1624539402,0.0227756960,9.2690898508
1520527958896077167,0.3438075150,-0.5289538803,-0.4530081040,0.3223954460,0.2781801495,9.3927955561
1520527958901093167,0.3749944052,-0.5225880298,-0.4319144899,0.5244268218,0.5407761673,9.5695431903
1520527958906109167,0.3994049656,-0.5159611335,-0.4005253071,0.8671586200,0.8849027757,9.7808682804
1520527958911124167,0.4120284387,-0.4991739140,-0.3565912692,0.9934282298,1.1990677324,9.9908430823
1520527958916141167,0.4166183586,-0.4756843587,-0.3139438947,0.7529146872,1.2554460643,10.0721549235
1520527958921157167,0.4166740087,-0.4527458369,-0.2837376765,0.6338604837,1.1859051921,10.1930823730
1520527958926172167,0.4079258533,-0.4312465592,-0.2613720694,0.5340473635,1.1403456297,10.3719063526
1520527958931188167,0.3903750685,-0.4147028075,-0.2395690112,0.5148062801,1.0084416817,10.5663003012
1520527958936205167,0.3614954267,-0.4115598903,-0.2205526714,0.6098091294,0.9436806997,10.7339496194
1520527958941220167,0.3250833749,-0.4037585027,-0.2012162146,0.7312684684,0.8645279721,10.7700331916
1520527958946237167,0.2854133181,-0.3921827795,-0.1772455101,0.9020330837,0.8093542129,10.8102620456
1520527958951252167,0.2422394616,-0.3709971159,-0.1515716343,1.0451386415,0.7601783100,10.7217562902
1520527958956267167,0.1995840021,-0.3363995544,-0.1287724348,1.0860259437,0.7409888788,10.5203261236
1520527958961283167,0.1498977228,-0.2962618877,-0.1083528415,1.1281158137,0.7194010731,10.4362631301
1520527958966299167,0.0971921254,-0.2561130192,-0.0925269278,1.1882441993,0.6582402285,10.3939003312
1520527958971316167,0.0409595469,-0.2217903058,-0.0778211252,1.2832470487,0.5778904210,10.4267561521
1520527958976331167,-0.0115050076,-0.1909736565,-0.0590908121,1.3181215123,0.5023418582,10.4927325793
1520527958981348167,-0.0627203756,-0.1671570278,-0.0377107277,1.2832470487,0.3920236554,10.5036389007
1520527958986363167,-0.1146960617,-0.1474171641,-0.0174425499,1.1269132460,0.2997020186,10.5273313323
1520527958991379167,-0.1639143606,-0.1299949103,-0.0017965709,0.9116536254,0.2517531668,10.5120411516
1520527958996395167,-0.2093772866,-0.1180856328,0.0056837917,0.8791842971,0.2073874999,10.4310503769
1520527959001410167,-0.2513229111,-0.1076355417,0.0144992342,0.8274738854,0.1258499785,10.4351196413
1520527959006428167,-0.2897498305,-0.0992346904,0.0273507695,0.6458861608,0.1090761552,10.4008770130
1520527959011442167,-0.3269309351,-0.0943102934,0.0328685549,0.5364524989,0.1018898357,10.3391934156
1520527959016459167,-0.3590964403,-0.0949107638,0.0348176706,0.5160088478,0.1126836918,10.3033554149
1520527959021475167,-0.3872592335,-0.1039379573,0.0285784723,0.5508833115,0.1102826948,10.2239925181
1520527959026490167,-0.4134133570,-0.1161783341,0.0255576371,0.7553198227,0.0191321004,10.0652020945
1520527959031507167,-0.4310138331,-0.1272760488,0.0322694779,0.8322841563,-0.0492248980,9.9552780915
1520527959036522167,-0.4413192139,-0.1351758765,0.0427798802,0.8479175366,-0.0552218177,9.8784302715
1520527959041538167,-0.4475993677,-0.1389911034,0.0519612086,0.8214610469,-0.0252412465,9.7240934033
1520527959046554167,-0.4491087093,-0.1433770306,0.0573415806,0.8767791617,-0.0240464145,9.5747993752
1520527959051570167,-0.4448281533,-0.1428180829,0.0668071988,0.9429203859,-0.0468352338,9.4300719643
1520527959056586167,-0.4365277452,-0.1448887619,0.0794918924,1.0246949904,-0.1044003430,9.3107934654
1520527959061601167,-0.4249491929,-0.1399707596,0.0943882399,1.0054539070,-0.1943343762,9.2308805139
1520527959066618167,-0.4078316890,-0.1295237550,0.1128336547,1.0283026935,-0.2506957557,9.1354172725
1520527959071634167,-0.3909657035,-0.1190761204,0.1310089904,0.9537434953,-0.3058504082,9.0931974493
1520527959076648167,-0.3705767750,-0.1022035360,0.1443568736,0.8334867240,-0.3454126762,9.0920822552
1520527959081666167,-0.3517003401,-0.0861940411,0.1533721536,0.6723426505,-0.3777769172,9.0564936984
1520527959086681167,-0.3368452078,-0.0681355033,0.1583522744,0.5111985769,-0.4545093539,9.0604613016
1520527959091697167,-0.3252664123,-0.0544373584,0.1589763819,0.5063883061,-0.5516393535,9.0884942932
1520527959096714167,-0.3111792860,-0.0418935690,0.1557992873,0.4234111339,-0.6295770185,9.0231357438
1520527959101729167,-0.2993540178,-0.0267158217,0.1480471208,0.3777135608,-0.6979244636,9.1131322727
1520527959106745167,-0.2892912677,-0.0121127914,0.1370472244,0.2887235500,-0.8118358729,9.1268931176
1520527959111759167,-0.2809958385,-0.0042152082,0.1270816477,0.2514439509,-0.9773143479,9.2052809881
1520527959116776167,-0.2747131716,0.0033967587,0.1146826686,0.1143512317,-1.1331919257,9.2904417434
1520527959121793167,-0.2671785819,0.0092681951,0.0995625584,-0.0516031127,-1.2351059366,9.2851835713
1520527959126808167,-0.2583888975,0.0171936556,0.0793153042,-0.1838855611,-1.2998492169,9.2714264004
1520527959131825167,-0.2440803968,0.0213485803,0.0533474182,-0.2800909782,-1.3741884304,9.2759217358
1520527959136840167,-0.2312877338,0.0220172264,0.0232974670,-0.2692678688,-1.3142322521,9.2769200673
1520527959141857167,-0.2152130963,0.0334669231,-0.0061352056,-0.2488242176,-1.2518785423,9.1987966307
1520527959146872167,-0.1913506571,0.0437570476,-0.0366734226,-0.2271779988,-1.1799318028,9.1345978619
1520527959151888167,-0.1687303280,0.0636579986,-0.0655126687,-0.1911009674,-1.0744102553,8.9714436548
1520527959156904167,-0.1428485675,0.0803586418,-0.0957351657,-0.1393905558,-1.0060632786,8.8871993203
1520527959161919167,-0.1154600647,0.0982341551,-0.1291981214,-0.1093263629,-0.9317189138,8.7985112543
1520527959166935167,-0.0873072018,0.1210511174,-0.1580254046,-0.0311594616,-0.8621748572,8.7186568151
1520527959171952167,-0.0578970136,0.1426950211,-0.1838879089,0.0963127160,-0.8358036958,8.6999581943
1520527959176966167,-0.0289839346,0.1643205171,-0.2029858324,0.2430259770,-0.7578709948,8.6612655639
1520527959181983167,-0.0035856166,0.1850551841,-0.2164024272,0.3813212639,-0.7422929402,8.7075521831
1520527959186999167,0.0255879271,0.2025525903,-0.2174053656,0.5340473635,-0.7087289032,8.7653022411
1520527959192016167,0.0517462338,0.2191695624,-0.2165155512,0.6531015671,-0.6751622436,8.8721900867
1520527959197031167,0.0789123663,0.2343147087,-0.2099572554,0.6314553482,-0.6068095536,8.9780892253
1520527959202048167,0.1015597696,0.2476864658,-0.1947464284,0.6037962908,-0.4725036720,9.0781718556
1520527959207063167,0.1219436015,0.2634051670,-0.1857361718,0.5208191186,-0.3094141119,9.2426827719
1520527959212078167,0.1403115896,0.2759214928,-0.1780993649,0.5208191186,-0.2362665461,9.3402315344
1520527959217095167,0.1549117143,0.2863820815,-0.1650602007,0.5124011447,-0.1175509885,9.4296827897
1520527959222111167,0.1629797827,0.2971271243,-0.1503834034,0.4835395195,-0.0204183664,9.4542740176
1520527959227125167,0.1667748458,0.3067027700,-0.1348959263,0.5376550666,0.0323395975,9.4746144303
1520527959232143167,0.1678089659,0.3189005218,-0.1196538535,0.4955651967,0.1102870031,9.5562981770
1520527959237159167,0.1638125773,0.3275989618,-0.1041585773,0.4246137016,0.1522624439,9.6138929022
1520527959242175167,0.1580539764,0.3351362735,-0.0905627476,0.3825238317,0.1942356368,9.6479638270
1520527959247190167,0.1527963932,0.3429717225,-0.0794005414,0.3211928783,0.2230197836,9.7194235019
1520527959252207167,0.1430167169,0.3554843056,-0.0744169204,0.3127749043,0.2254187201,9.7613402810
1520527959257222167,0.1236796366,0.3630439811,-0.0710766317,0.2827107115,0.2278193425,9.7964948874
1520527959262237167,0.1055918369,0.3659449101,-0.0688564296,0.2754953052,0.2338156065,9.8686121962
1520527959267254167,0.0842297976,0.3606734091,-0.0620931263,0.2730901698,0.2637943044,9.8825521003
1520527959272270167,0.0605860592,0.3437594811,-0.0605549179,0.3248005814,0.2470023111,9.9436587831
1520527959277284167,0.0369435948,0.3271340239,-0.0579323028,0.3296108523,0.2374088131,9.9308377341
1520527959282302167,0.0102803108,0.3073050692,-0.0564107246,0.3428390971,0.2278146595,9.9644205079
1520527959287318167,-0.0138636574,0.2892122944,-0.0500106489,0.3284082846,0.2002355536,9.9459935601
1520527959292333167,-0.0349925219,0.2714149994,-0.0446961344,0.2646721958,0.2098336410,9.8989566713
1520527959297349167,-0.0566268420,0.2521634985,-0.0404739855,0.1600488048,0.2578074064,9.8662260629
1520527959302365167,-0.0724753457,0.2387485085,-0.0386530226,0.0878947420,0.3141726259,9.8215497932
1520527959307380167,-0.0820429978,0.2273902403,-0.0422390841,0.0446023043,0.3297648231,9.8254424056
1520527959312396167,-0.0911071270,0.2171998923,-0.0466288244,0.0602356846,0.3417550098,9.7636849169
1520527959317413167,-0.0959036650,0.2032210339,-0.0502437614,0.0458048720,0.3261673082,9.6360047441
1520527959322429167,-0.0959236395,0.1883596946,-0.0500865928,0.1143512317,0.2578109654,9.5796212984
1520527959327443167,-0.0961948697,0.1732054154,-0.0493900889,0.1768847527,0.2098404782,9.5093307718
1520527959332461167,-0.0899388030,0.1513431108,-0.0455102999,0.2165694873,0.1774605960,9.4218152805
1520527959337476167,-0.0854448233,0.1259776752,-0.0394895537,0.3248005814,0.1702573240,9.3510402042
1520527959342492167,-0.0776815438,0.1006055068,-0.0304988701,0.3428390971,0.1726542000,9.3252951227
1520527959347508167,-0.0686634012,0.0728976555,-0.0196344835,0.3524596388,0.1798482932,9.2914922915
1520527959352524167,-0.0548678090,0.0472313664,-0.0087634031,0.3452442326,0.1894419786,9.2218245299
1520527959357540167,-0.0423318787,0.0192335089,0.0020922263,0.4029674828,0.1990306063,9.1805782941
1520527959362555167,-0.0282842859,-0.0067277083,0.0143133464,0.3969546442,0.2410009894,9.1341101343
1520527959367572167,-0.0154882554,-0.0274372121,0.0238713567,0.4137905922,0.2398005378,9.1211638494
1520527959372587167,0.0031006169,-0.0423335147,0.0396856497,0.3692955868,0.2565919691,9.0994998306
1520527959377602167,0.0221957445,-0.0522658854,0.0517491591,0.2851158469,0.2949710188,9.1153896371
1520527959382620167,0.0397890657,-0.0566574418,0.0619638863,0.1865052944,0.3309529117,9.1697729934
1520527959387635167,0.0596457112,-0.0572484583,0.0678745787,0.0698562263,0.3621396477,9.1174193592
1520527959392652167,0.0847880375,-0.0508405365,0.0724760945,0.0409946012,0.4017135295,9.1839038977
1520527959397668167,0.1046513791,-0.0432582177,0.0730381153,-0.0479954096,0.4233049880,9.2556398050
1520527959402683167,0.1282832348,-0.0365493040,0.0738570120,-0.0227414876,0.4292987232,9.3053603422
1520527959407699167,0.1486485586,-0.0292574444,0.0741453304,-0.0203363522,0.4041165870,9.3390636628
1520527959412715167,0.1654891477,-0.0251649086,0.0717102701,0.0349817626,0.3669389255,9.4117765489
1520527959417731167,0.1798127889,-0.0239872026,0.0692576462,0.0193483823,0.3777324069,9.4584039487
1520527959422747167,0.1901054009,-0.0292164325,0.0648697606,0.0722613617,0.3873214093,9.4323124045
1520527959427761167,0.1976233955,-0.0388029448,0.0550427449,0.1528333985,0.3525400618,9.4966421380
1520527959432779167,0.2018769595,-0.0501550695,0.0511604677,0.2791030083,0.3609242104,9.5907007260
1520527959437795167,0.2018572085,-0.0635536588,0.0491643845,0.4089803213,0.4304642397,9.6370166603
1520527959442810167,0.1985711411,-0.0778335090,0.0493320666,0.5568961500,0.4616303706,9.6808701498
1520527959447826167,0.1930257561,-0.0918294166,0.0519410854,0.5737320980,0.5431706081,9.7329232419
1520527959452842167,0.1889968713,-0.1008777524,0.0570200094,0.6194296711,0.5947300872,9.7533467593
1520527959457858167,0.1794409138,-0.1067135549,0.0586165585,0.6470887285,0.7134428350,9.7448267707
1520527959462873167,0.1711445751,-0.1099249474,0.0596896900,0.6314553482,0.8165701290,9.7530133810
1520527959467890167,0.1616013707,-0.1084856063,0.0648589130,0.5965808846,0.8657376025,9.7602777484
1520527959472905167,0.1535707970,-0.1041347429,0.0711297500,0.5797449366,0.9304924966,9.7452706035
1520527959477921167,0.1460390810,-0.1026982563,0.0776479686,0.6314553482,0.9796532265,9.7075307366
1520527959482937167,0.1359992967,-0.1004009839,0.0887768040,0.6242399420,1.0060348778,9.6866566503
1520527959487953167,0.1249421717,-0.1080155499,0.1014551967,0.5989860200,1.0228248106,9.6799132220
1520527959492969167,0.1136329089,-0.1173836206,0.1160145389,0.5761372334,1.0456102582,9.6591948095
1520527959497985167,0.1045885032,-0.1244197289,0.1305874652,0.5003754675,1.0204342099,9.7017939665
1520527959503001167,0.0950401043,-0.1279390238,0.1376127170,0.3921443734,1.0468237286,9.7016595522
1520527959508025167,0.0864910592,-0.1320239399,0.1384091001,0.3512570711,1.0576191768,9.6950741363
1520527959513033167,0.0786905476,-0.1384323526,0.1364808393,0.2454311124,1.0672205423,9.6937705387
1520527959518048167,0.0703889006,-0.1398699429,0.1280982030,0.2442285447,1.1343724997,9.7123110640
1520527959523064167,0.0656078169,-0.1380943692,0.1172985734,0.2237848935,1.1775431471,9.6996843702
1520527959528080167,0.0593232097,-0.1325284736,0.1054484607,0.3163826074,1.2087135863,9.7034012539
1520527959533096167,0.0532967188,-0.1225946254,0.0947134111,0.4330316756,1.3166271394,9.7381870855
1520527959538112167,0.0487832076,-0.1106285074,0.0869671277,0.5917706137,1.3621821124,9.7923804929
1520527959543128167,0.0447706592,-0.1024618464,0.0835197450,0.7144325204,1.4593029334,9.8027133002
1520527959548144167,0.0425254629,-0.0922730152,0.0868483042,0.7998148280,1.5444352536,9.8169070896
1520527959553160167,0.0412874770,-0.0838466660,0.0955725760,0.9008305159,1.6295663562,9.8971909185
1520527959558175167,0.0400513337,-0.0760118270,0.1075389523,0.9345024119,1.7290923889,9.9397654481
1520527959563192167,0.0373026419,-0.0731376716,0.1219052496,0.8924125419,1.8274251817,9.9075392085
1520527959568208167,0.0358063984,-0.0725911864,0.1351692450,0.8334867240,1.8885859326,9.9301338551
1520527959573224167,0.0380848319,-0.0670845883,0.1465702108,0.8130430729,1.9641333715,9.9407184683
1520527959578238167,0.0385954664,-0.0665256606,0.1555017381,0.7829788801,2.0180970321,9.9793092249
1520527959583255167,0.0391005221,-0.0668263178,0.1590156782,0.7072171142,2.0576745666,10.0090616541
1520527959588272167,0.0386011353,-0.0647882799,0.1595732650,0.7180402236,2.0888513747,9.9554672839
1520527959593286167,0.0413714520,-0.0595386332,0.1582554171,0.7204453590,2.0684658002,9.9787066317
1520527959598303167,0.0431351699,-0.0536993270,0.1542384233,0.6867734630,2.0193036653,9.9790823161
1520527959603319167,0.0446536657,-0.0414409185,0.1470242534,0.7168376559,1.9485520388,9.9823451126
1520527959608334167,0.0469332675,-0.0259864544,0.1433502338,0.7757634738,1.8706033219,10.0236847543
1520527959613351167,0.0477129956,-0.0047048906,0.1397234764,0.8443098334,1.8693988429,10.0532344782
1520527959618366167,0.0510050887,0.0133600448,0.1406668779,0.9789974173,1.9161548295,10.1146336812
1520527959623383167,0.0510317004,0.0308336468,0.1443173597,1.0956464854,1.9185440253,10.2238996277
1520527959628397167,0.0500557043,0.0471274767,0.1531011880,1.1617877096,1.9017509081,10.3406487597
1520527959633414167,0.0455620499,0.0628327886,0.1635103797,1.1341286523,1.9473203984,10.5105465584
1520527959638430167,0.0400654898,0.0808716966,0.1728570394,1.0884310792,1.9856964510,10.6283304711
1520527959643446167,0.0360777772,0.0992003946,0.1830147595,1.0343155321,1.9605187168,10.7079075436
1520527959648462167,0.0270581564,0.1160833126,0.1883008725,1.0198847195,1.9533249982,10.7382707631
1520527959653478167,0.0132575695,0.1294728446,0.1916753549,0.9777948496,1.9245489061,10.7875185503
1520527959658493167,0.0029788241,0.1478274900,0.1912934532,0.8827920002,1.9017726372,10.7408175651
1520527959663510167,-0.0062931383,0.1688115459,0.1884947792,0.8214610469,1.8514135161,10.7147343243
1520527959668526167,-0.0185840190,0.1915616666,0.1786808512,0.7180402236,1.8106507965,10.7146185727
1520527959673542167,-0.0301232456,0.2131487299,0.1680449929,0.6374681868,1.7986656674,10.6677666028
1520527959678556167,-0.0416647147,0.2335724404,0.1565886046,0.6326579159,1.8034626038,10.5364864788
1520527959683574167,-0.0547179325,0.2525451934,0.1426889882,0.6170245357,1.7806801533,10.4564729292
1520527959688590167,-0.0685230748,0.2700476167,0.1336494826,0.6903811662,1.7818735805,10.3534890834
1520527959693605167,-0.0805682040,0.2872549740,0.1262277623,0.7697506352,1.8034519265,10.3666412290
1520527959698621167,-0.0898581611,0.2948346132,0.1235973723,0.8058276666,1.8382241890,10.3348782797
1520527959703638167,-0.0921196663,0.2980527970,0.1184856547,0.8431072657,1.8753946387,10.3251820218
1520527959708652167,-0.0979015152,0.2980570884,0.1160614763,0.8322841563,1.9653310134,10.3542532658
1520527959713669167,-0.1011715246,0.2954318909,0.1165886277,0.8334867240,2.0684569961,10.3169523910
1520527959718685167,-0.1009304697,0.2904901073,0.1122216342,0.7841814478,2.1607946488,10.2952615240
1520527959723700167,-0.0994319956,0.2867165394,0.1070495618,0.7000017079,2.2723212644,10.3505928953
1520527959728715167,-0.0969237902,0.2879041865,0.0992079559,0.6218348065,2.3742542883,10.3710107774
1520527959733733167,-0.0951796429,0.2821004950,0.0905027584,0.5653141240,2.4258217285,10.2773769731
1520527959738748167,-0.0926930390,0.2675541061,0.0822705601,0.5713269626,2.4713885963,10.2435718383
1520527959743765167,-0.0897069149,0.2515546337,0.0726735833,0.4991728998,2.4917796031,10.1756877696
1520527959748780167,-0.0842083749,0.2349726483,0.0633380391,0.4691087070,2.4965785063,10.0923013539
1520527959753797167,-0.0782096562,0.2169353940,0.0534493542,0.4294239725,2.5505429161,10.0682299775
1520527959758811167,-0.0697028301,0.1962810342,0.0419127189,0.4534753267,2.6116972045,9.9923968830
1520527959763828167,-0.0594330937,0.1750292974,0.0360498342,0.4739189778,2.6224878761,9.9898630851
1520527959768843167,-0.0489080596,0.1549351845,0.0331713800,0.4799318164,2.6332796716,10.0072261951
1520527959773860167,-0.0353663890,0.1336679737,0.0335249835,0.4330316756,2.6716558179,10.0088074174
1520527959778874167,-0.0210691557,0.1115174352,0.0373876142,0.4065751859,2.6668613167,9.9556109841
1520527959783891167,-0.0060144152,0.0931602898,0.0393839236,0.3969546442,2.6656629256,9.9882458246
1520527959788907167,0.0067763972,0.0751023841,0.0381401059,0.3079646335,2.7040423499,9.9983717316
1520527959793923167,0.0183110684,0.0576282120,0.0363619761,0.1889104299,2.7136447457,10.0181154807
1520527959798939167,0.0275875707,0.0430684559,0.0340691859,0.1444154245,2.7604146876,9.9940979405
1520527959803954167,0.0351022643,0.0305659132,0.0250315770,0.1047306900,2.7891971485,9.9607539686
1520527959808970167,0.0416151929,0.0201004829,0.0168230342,-0.0010952688,2.7784131268,9.9676052574
1520527959813987167,0.0491315253,0.0128610724,0.0010617934,-0.1081237952,2.7844171647,10.0093161991
1520527959819002167,0.0528738002,0.0024156837,-0.0149874463,-0.0973006858,2.8060008493,9.9859469264
1520527959824018167,0.0561067460,-0.0129834389,-0.0310735451,-0.1021109567,2.8815470707,10.0033522376
1520527959829034167,0.0580767329,-0.0321666820,-0.0488094858,-0.0804647378,2.9367058443,10.0205199162
1520527959834050167,0.0605462282,-0.0571934443,-0.0606388119,-0.0467928419,3.0014568046,10.0294261820
1520527959839066167,0.0645163420,-0.0886351744,-0.0706260249,0.0097278406,3.0110455260,10.0428124171
1520527959844083167,0.0699930531,-0.1238774244,-0.0757751123,0.1480231276,3.0086364743,10.0042800677
1520527959849098167,0.0774814211,-0.1617573730,-0.0749959315,0.2983440917,2.9558625881,10.0551648645
1520527959854114167,0.0879862885,-0.2028588523,-0.0677537038,0.4354368110,2.9162802769,10.1526513124
1520527959859128167,0.1017657325,-0.2410575897,-0.0558960324,0.5388576343,2.8802980095,10.2155976752
1520527959864146167,0.1142961154,-0.2745983092,-0.0426477286,0.5821500720,2.7339995061,10.3326954919
1520527959869162167,0.1313519512,-0.3043390595,-0.0331665682,0.6110116971,2.5301433862,10.4953135119
1520527959874178167,0.1411364376,-0.3241850607,-0.0200791913,0.6531015671,2.4150226275,10.5705554485
1520527959879193167,0.1524426228,-0.3326613756,-0.0088017357,0.6110116971,2.2723281952,10.6629136492
1520527959884209167,0.1620029162,-0.3309377359,0.0017451572,0.4871472227,2.1716100466,10.7141896845
1520527959889225167,0.1635288215,-0.3228016882,0.0104620720,0.3789161285,2.1572287909,10.8256608473
1520527959894241167,0.1605440696,-0.3027089922,0.0149497999,0.2093540810,2.1140729417,10.9226491608
1520527959899258167,0.1555454183,-0.2811419504,0.0126887296,0.0241586532,2.1560572802,10.9557886993
1520527959904273167,0.1399935884,-0.2554858202,0.0053380128,-0.1393905558,2.2136287583,11.0003237850
1520527959909288167,0.1264477112,-0.2309849708,-0.0055424267,-0.2199625925,2.2951765823,10.9661641901
1520527959914305167,0.1046034762,-0.2093961167,-0.0183235164,-0.2380011082,2.3779186764,10.9639347936
1520527959919321167,0.0857685820,-0.1915904379,-0.0324918365,-0.1454033943,2.4438641879,11.0024820851
1520527959924336167,0.0626564131,-0.1787450688,-0.0447961934,-0.0059055396,2.5110051870,10.9778159365
1520527959929351167,0.0365223582,-0.1737828320,-0.0517440550,0.1853027267,2.5337739631,10.8771503789
1520527959934368167,0.0141517873,-0.1787509589,-0.0495759419,0.4077777536,2.4749987553,10.8808529609
1520527959939385167,-0.0107350375,-0.1898558994,-0.0412272908,0.5701243949,2.4090333879,10.8549320689
1520527959944400167,-0.0308449931,-0.2024297321,-0.0277582508,0.6302527805,2.2735258371,10.8161282009
1520527959949415167,-0.0524589153,-0.2126752646,-0.0134569881,0.6963940047,2.2003731199,10.7527999790
1520527959954431167,-0.0720584011,-0.2205918469,0.0019405091,0.7288633330,2.0840539701,10.7351652091
1520527959959447167,-0.0866383319,-0.2325829298,0.0162153650,0.7589275258,1.9857221138,10.6582669675
1520527959964464167,-0.0999534533,-0.2384544454,0.0305345721,0.7493069841,1.8766010846,10.6480077222
1520527959969480167,-0.1125021839,-0.2352934736,0.0451918406,0.6506964316,1.7866732329,10.5979209033
1520527959974495167,-0.1232896587,-0.2274558200,0.0547410394,0.4919574935,1.6655724133,10.5693683312
1520527959979510167,-0.1323162734,-0.2152328692,0.0591799453,0.3717007222,1.5588582816,10.5625079004
1520527959984527167,-0.1400807996,-0.1962959270,0.0593389143,0.2430259770,1.5109026863,10.5010513414
1520527959989544167,-0.1455846007,-0.1767695023,0.0573337617,0.1889104299,1.4905215138,10.4458150379
1520527959994559167,-0.1523436179,-0.1554916205,0.0539915519,0.1540359662,1.4413594726,10.3450959035
1520527959999575167,-0.1581011760,-0.1356644401,0.0484719925,0.1035281222,1.4365668446,10.2479721010
1520527960004591167,-0.1676267149,-0.1126240371,0.0394667912,0.0674510909,1.4317730927,10.1425728303
1520527960009606167,-0.1753979607,-0.0942501963,0.0323165748,0.1011229868,1.3921988362,10.0876629110
1520527960014623167,-0.1839343623,-0.0828640522,0.0229500374,0.1432128568,1.3466282221,10.0094340240
1520527960019639167,-0.1927267712,-0.0752674622,0.0140961584,0.1696693465,1.3634141275,9.9464043685
1520527960024655167,-0.2020310613,-0.0746650262,0.0054604046,0.2358105707,1.3310321847,9.9004685483
1520527960029671167,-0.2095851001,-0.0795938364,-0.0048441302,0.2863184146,1.3178377064,9.8593147603
1520527960034686167,-0.2186467124,-0.0845239658,-0.0148753187,0.4546778944,1.2794521004,9.8042548494
1520527960039701167,-0.2231775165,-0.0862572913,-0.0211028118,0.6615195411,1.2014918634,9.8511276328
1520527960044718167,-0.2264502976,-0.0909221805,-0.0205912220,0.8671586200,1.1319257030,9.8770853447
1520527960049734167,-0.2284574931,-0.0947386474,-0.0103356443,1.0030487715,1.0779538003,9.9420574990
1520527960054749167,-0.2307087818,-0.0968229310,0.0058857484,1.0463412092,1.0167942670,9.9521550489
1520527960059765167,-0.2319489397,-0.0959995315,0.0245624181,1.0848233760,0.9832153380,9.9831911153
1520527960064782167,-0.2316835039,-0.0966317354,0.0429546261,0.9838076881,0.8932876737,9.9470734340
1520527960069798167,-0.2258871574,-0.0937571462,0.0583872384,0.8900074065,0.8153508516,9.9782781782
1520527960074814167,-0.2180813336,-0.0876590572,0.0673474693,0.8154482083,0.7757850246,9.9465024492
1520527960079829167,-0.2080186502,-0.0815440567,0.0703514900,0.6025937231,0.7841955854,9.8637295502
1520527960084845167,-0.1979579310,-0.0710320647,0.0636492048,0.3584724774,0.7710240537,9.8254435009
1520527960089861167,-0.1841283330,-0.0564188164,0.0493957568,0.2358105707,0.7650379049,9.7011317163
1520527960094877167,-0.1660279604,-0.0374090883,0.0262397062,0.1612513725,0.7494548863,9.5833339479
1520527960099893167,-0.1479351973,-0.0233499834,0.0019636796,0.2069489456,0.7026848507,9.5213411304
1520527960104908167,-0.1325991158,-0.0058048168,-0.0187634394,0.2911286855,0.6103444819,9.3823166850
1520527960109923167,-0.1114784214,0.0108487931,-0.0322032231,0.4234111339,0.4520476434,9.3300491476
1520527960114940167,-0.0956322385,0.0266130701,-0.0407700487,0.5075908738,0.2793648663,9.2805881325
1520527960119957167,-0.0782785685,0.0429643490,-0.0506879580,0.5376550666,0.1474570782,9.4024492486
1520527960124971167,-0.0596675301,0.0578497279,-0.0571022196,0.5256293895,0.0275439724,9.5003033252
1520527960129989167,-0.0420597072,0.0741916357,-0.0635034990,0.6158219680,0.0167446841,9.5714888952
1520527960135004167,-0.0259581405,0.0905278537,-0.0680081567,0.7084196819,-0.0024487745,9.7298200370
1520527960140020167,-0.0073387948,0.1086053507,-0.0695281384,0.6591144056,0.0275335762,9.8592686897
1520527960145036167,0.0052471797,0.1252242905,-0.0713185799,0.6374681868,0.1450510236,9.9116612635
1520527960150052167,0.0198428470,0.1436025232,-0.0768870593,0.5857577751,0.3009433060,9.9759304843
1520527960155067167,0.0321693565,0.1605411580,-0.0892261010,0.4498676236,0.5012103403,9.9538149969
1520527960160083167,0.0437328663,0.1722411317,-0.1040386711,0.3091672012,0.7122700130,9.8736286080
1520527960165099167,0.0517687835,0.1792877727,-0.1226679191,0.2141643518,0.9089364416,9.8104436183
1520527960170116167,0.0587910217,0.1828497888,-0.1459212573,0.1143512317,1.0492436449,9.7055232255
1520527960175130167,0.0693316630,0.1864124550,-0.1689105838,0.1684667787,1.0900102046,9.6061745043
1520527960180147167,0.0735880694,0.1870515301,-0.1892050142,0.3055594980,1.0396356296,9.4851884128
1520527960185162167,0.0753359606,0.1856258907,-0.2005823243,0.4715138424,0.8585525006,9.4151831920
1520527960190179167,0.0760774137,0.1792281098,-0.2052319126,0.5653141240,0.6606870252,9.3145187585
1520527960195194167,0.0768255864,0.1733934303,-0.2025723155,0.6314553482,0.3537019255,9.2177163830
1520527960200210167,0.0732991268,0.1655166570,-0.1996497998,0.5749346657,0.0862980131,9.2080679878
1520527960205227167,0.0690160068,0.1585268536,-0.2015890408,0.4763241133,-0.1475266893,9.2510930059
1520527960210242167,0.0667529570,0.1588231795,-0.2037469844,0.4366393787,-0.3417843471,9.2737494408
1520527960215258167,0.0642485073,0.1664040201,-0.2058488841,0.3753084254,-0.4341133831,9.3662458102
1520527960220275167,0.0645052281,0.1742889831,-0.2122824290,0.3416365294,-0.4377081819,9.5339257892
1520527960225290167,0.0637591215,0.1809949025,-0.2138531733,0.2851158469,-0.3945347246,9.6820261129
1520527960230306167,0.0670222780,0.1824720442,-0.2208823185,0.1973284039,-0.2266482282,9.8372820204
1520527960235322167,0.0697725418,0.1763729914,-0.2279683306,0.1035281222,-0.0371767358,9.9553867986
1520527960240338167,0.0752733243,0.1609543588,-0.2364833448,0.0999204191,0.1402963279,9.9947617460
1520527960245354167,0.0807663208,0.1402929901,-0.2458500122,0.1179589348,0.2710012291,10.0490794780
1520527960250370167,0.0855039193,0.1164166265,-0.2517226368,0.1420102891,0.3021770069,10.0511392620
1520527960255386167,0.0947564953,0.0870086429,-0.2587280845,0.2550516541,0.2673931306,10.0431000338
1520527960260401167,0.1035074341,0.0555483873,-0.2611488802,0.4570830299,0.1786410044,10.0144908044
1520527960265417167,0.1150375575,0.0287229584,-0.2529879506,0.6013911554,0.0047544038,9.9679321376
1520527960270434167,0.1223027634,0.0039209788,-0.2393926071,0.6819631922,-0.1655298115,9.8766667166
1520527960275448167,0.1285720615,-0.0124239590,-0.2284363862,0.6567092702,-0.2746496232,9.8839917964
1520527960280465167,0.1328441690,-0.0185690407,-0.2182102613,0.5051857384,-0.3837596006,9.9367073774
1520527960285482167,0.1368704467,-0.0156587191,-0.2163016767,0.3801186962,-0.4389103194,10.0390850168
1520527960290497167,0.1403983177,-0.0054450421,-0.2213707749,0.2598619249,-0.3945327578,10.1866423952
1520527960295513167,0.1426737482,0.0100232622,-0.2301851665,0.2766978729,-0.2818148692,10.2897994184
1520527960300529167,0.1396738871,0.0284099000,-0.2414024390,0.3151800397,-0.1918823346,10.3834708165
1520527960305545167,0.1384395276,0.0464832612,-0.2442382790,0.4378419465,-0.1199434625,10.4670432490
1520527960310560167,0.1354513885,0.0642456094,-0.2400388817,0.5568961500,-0.0144283775,10.5296994640
1520527960315577167,0.1304488952,0.0776298462,-0.2334341838,0.6290502128,0.0563152878,10.5649546322
1520527960320593167,0.1194062875,0.0802115533,-0.2198663454,0.6867734630,0.0659039155,10.5446269876
1520527960325607167,0.1078566284,0.0757830810,-0.2001283720,0.7757634738,0.0515072996,10.4670733445
1520527960330625167,0.0960509622,0.0675650545,-0.1798777402,0.8731714585,-0.0072581676,10.3499681371
1520527960335640167,0.0822395236,0.0622579003,-0.1587895061,0.8515252397,-0.0720100646,10.2456490166
1520527960340655167,0.0644050651,0.0572492966,-0.1409381320,0.7649403644,-0.1451508869,10.1628887456
1520527960345672167,0.0493327925,0.0545903344,-0.1295672088,0.6747477859,-0.2266854112,10.1429275488
1520527960350687167,0.0302419497,0.0577764267,-0.1251785495,0.5400602021,-0.2758396786,10.1082599954
1520527960355703167,0.0088863047,0.0627281508,-0.1275359987,0.4450573527,-0.3094082113,10.0871367012
1520527960360719167,-0.0114667324,0.0688596470,-0.1350267944,0.2851158469,-0.3129931758,10.0863726939
1520527960365735167,-0.0315624372,0.0817032839,-0.1462545684,0.1624539402,-0.3309707289,10.1363941958
1520527960370751167,-0.0526643409,0.0968914434,-0.1626030629,0.0409946012,-0.2997836182,10.0898981015
1520527960375766167,-0.0737646215,0.1114888210,-0.1759799986,0.0229560855,-0.3321590047,10.0703488023
1520527960380782167,-0.0923506437,0.1249121755,-0.1858533973,0.1432128568,-0.3897271110,10.0401808261
1520527960385799167,-0.1144502940,0.1342212604,-0.1833062739,0.2863184146,-0.4940634734,10.0202953536
1520527960390814167,-0.1337834265,0.1403043456,-0.1726723615,0.3043569303,-0.5564201803,10.0073969999
1520527960395830167,-0.1563893009,0.1399662217,-0.1585641929,0.2081515133,-0.5971834619,9.9363202368
1520527960400846167,-0.1785022924,0.1355627514,-0.1496284529,0.0770716326,-0.5719913041,9.9120043649
1520527960405862167,-0.2013837721,0.1259388310,-0.1499298888,-0.0143235136,-0.6139541008,9.7816126092
1520527960410877167,-0.2230205385,0.1113786198,-0.1564940064,-0.0371723002,-0.6307402872,9.7179334585
1520527960415894167,-0.2429001851,0.0982891322,-0.1679201017,-0.0227414876,-0.6055594622,9.6724448275
1520527960420909167,-0.2622836556,0.0811233718,-0.1804604373,0.1179589348,-0.5911807353,9.5792519315
1520527960425925167,-0.2771410696,0.0636578011,-0.1892237544,0.2165694873,-0.5696038878,9.5666496292
1520527960430942167,-0.2887317321,0.0456085560,-0.1971859474,0.3608776128,-0.5684159866,9.4908666400
1520527960435959167,-0.3005708825,0.0278425842,-0.2021694457,0.4510701913,-0.5936049600,9.4609597180
1520527960440974167,-0.3053731403,0.0094922295,-0.2055471831,0.5580987177,-0.6283883680,9.4157904086
1520527960445990167,-0.3084129662,-0.0076977254,-0.2067549280,0.6001885877,-0.7135306162,9.4189501866
1520527960451006167,-0.3109389350,-0.0179000821,-0.2057458852,0.6254425097,-0.7051386000,9.4245069148
1520527960456021167,-0.3081772471,-0.0211100564,-0.2036111059,0.6254425097,-0.7267231277,9.4710137211
1520527960461036167,-0.2996292606,-0.0187778180,-0.2027975522,0.6037962908,-0.7183274588,9.4851619541
1520527960466054167,-0.2868010670,-0.0150073792,-0.1944055322,0.5893654783,-0.7842790582,9.4621238494
1520527960471069167,-0.2724698790,-0.0159036012,-0.1841580606,0.6158219680,-0.8730175100,9.4514935737
1520527960476084167,-0.2578862985,-0.0182668454,-0.1701345287,0.5160088478,-0.9557504255,9.3677092691
1520527960481101167,-0.2420500109,-0.0247148082,-0.1539800863,0.4246137016,-0.9629381499,9.3139851036
1520527960486116167,-0.2249626785,-0.0329003878,-0.1416289587,0.3500545034,-0.9701271855,9.2101248772
1520527960491133167,-0.2093903017,-0.0431116812,-0.1347015102,0.2779004406,-0.9485370383,9.1747796699
1520527960496149167,-0.1958286644,-0.0524445097,-0.1296574800,0.2430259770,-0.9761145519,9.0740394874
1520527960501164167,-0.1837800107,-0.0652730864,-0.1251784182,0.2959389563,-1.0168894473,9.0758885103
1520527960506181167,-0.1724835834,-0.0775221031,-0.1196113266,0.2947363886,-1.0936343407,9.0573807498
1520527960511195167,-0.1639499927,-0.0891916190,-0.1132230171,0.3151800397,-1.1763766222,9.1235046537
1520527960516213167,-0.1579311035,-0.1011491335,-0.1084555388,0.2730901698,-1.2507200503,9.2913355591
1520527960521228167,-0.1554341732,-0.1128028016,-0.1088196753,0.1660616433,-1.3790197399,9.3540960580
1520527960526243167,-0.1504283789,-0.1232710078,-0.1162137801,0.0482100075,-1.4341710207,9.4331605880
1520527960531259167,-0.1489496008,-0.1363455708,-0.1301144599,0.0626408200,-1.5169128338,9.4563436908
1520527960536276167,-0.1449594615,-0.1502918460,-0.1445675681,0.1889104299,-1.6356375700,9.4215282498
1520527960541292167,-0.1442336273,-0.1683457364,-0.1490355339,0.3825238317,-1.7747529384,9.3279700067
1520527960546307167,-0.1419913047,-0.1858424906,-0.1437622016,0.6025937231,-1.9042772439,9.2515770570
1520527960551324167,-0.1407482929,-0.2030664648,-0.1317211319,0.7733583384,-2.0325985689,9.1500956782
1520527960556339167,-0.1399914406,-0.2141985128,-0.1096222459,0.8407021303,-2.1225393457,9.0635292429
1520527960561355167,-0.1374631824,-0.2180532712,-0.0844950449,0.8322841563,-2.1225386900,9.0415304431
1520527960566371167,-0.1339225976,-0.2151992358,-0.0617534929,0.7853840155,-2.1249333181,9.0338542713
1520527960571387167,-0.1336465611,-0.2088418532,-0.0419552013,0.6891785985,-2.1237266849,9.0708159691
1520527960576402167,-0.1323597387,-0.1972340563,-0.0240125824,0.5508833115,-2.0745511567,9.1615991921
1520527960581419167,-0.1275544621,-0.1829914938,-0.0101146783,0.3632827482,-2.0109821033,9.2110111081
1520527960586435167,-0.1270264485,-0.1693188054,-0.0016242040,0.2093540810,-2.0001778510,9.2961731960
1520527960591450167,-0.1277577791,-0.1541736612,0.0009277097,0.0927050128,-1.9701902554,9.3274950958
1520527960596467167,-0.1287492411,-0.1416335939,-0.0030330192,0.0818819034,-1.8946435658,9.3774989629
1520527960601483167,-0.1284861418,-0.1293793198,-0.0088921260,0.0854896066,-1.8766567404,9.3530412846
1520527960606499167,-0.1274602193,-0.1121784977,-0.0120093816,0.1756821850,-1.8023170586,9.3695230657
1520527960611513167,-0.1244210089,-0.0952791990,-0.0110744057,0.2562542218,-1.7747431041,9.3756847958
1520527960616529167,-0.1188653328,-0.0751707721,-0.0112018266,0.3392313940,-1.7651564433,9.3225713143
1520527960621547167,-0.1163218163,-0.0544894989,-0.0080726499,0.4691087070,-1.7711622607,9.3201508709
1520527960626561167,-0.1142802858,-0.0349812450,-0.0022459732,0.5689218272,-1.7711700344,9.2819907447
1520527960631577167,-0.1099755762,-0.0166478411,0.0073552533,0.6567092702,-1.7567871865,9.2543929326
1520527960636594167,-0.1066700322,0.0069337326,0.0156456327,0.7793711769,-1.7579958803,9.2055522840
1520527960641609167,-0.1046157957,0.0325464930,0.0269299121,0.7553198227,-1.7472017433,9.2104244369
1520527960646625167,-0.1038255727,0.0540859336,0.0357504889,0.7481044164,-1.7280149345,9.2418538446
1520527960651642167,-0.1022824215,0.0747507875,0.0448335422,0.7661429321,-1.6416782289,9.2090540456
1520527960656656167,-0.1052695100,0.0913388565,0.0522705979,0.7000017079,-1.6128937075,9.2050211837
1520527960661672167,-0.1072617805,0.1024004828,0.0561464515,0.6867734630,-1.5385459710,9.1504566745
1520527960666688167,-0.1054891006,0.1099662433,0.0602591731,0.6795580568,-1.4462115964,9.1039511075
1520527960671705167,-0.1107632985,0.1114174562,0.0616328192,0.6446835931,-1.4174295101,9.0089666858
1520527960676720167,-0.1130144342,0.1172355194,0.0649280322,0.6855708953,-1.4126361329,8.9492946948
1520527960681736167,-0.1175377700,0.1169409059,0.0654753019,0.6290502128,-1.4617964882,8.9045691612
1520527960686752167,-0.1210564397,0.1157703472,0.0668256731,0.6206322388,-1.5493330835,8.7954949266
1520527960691768167,-0.1215575437,0.1160578927,0.0681815592,0.6398733222,-1.6284778500,8.8000333980
1520527960696784167,-0.1253265871,0.1160549590,0.0687296518,0.6170245357,-1.6752425470,8.7828692389
1520527960701801167,-0.1263325312,0.1151789547,0.0692659412,0.6025937231,-1.7292027421,8.8004944792
1520527960706815167,-0.1258306392,0.1140106998,0.0703382990,0.5677192594,-1.7315983068,8.7706205217
1520527960711831167,-0.1268353092,0.1134231663,0.0719589951,0.5196165509,-1.7028151903,8.8070871224
1520527960716848167,-0.1233150164,0.1140029432,0.0735801825,0.5087934415,-1.6452556070,8.7513534298
1520527960721864167,-0.1220523594,0.1198369534,0.0714579435,0.4618933007,-1.5804983714,8.7192067520
1520527960726879167,-0.1227937144,0.1300394871,0.0699138762,0.4594881653,-1.5493205331,8.7133890395
1520527960731896167,-0.1175075475,0.1382076058,0.0672608625,0.4342342433,-1.4893615450,8.7368192578
1520527960736911167,-0.1142296189,0.1466604938,0.0667781728,0.4330316756,-1.4126164643,8.7123511021
1520527960741927167,-0.1104448273,0.1574410129,0.0676650638,0.4354368110,-1.4150149324,8.6611956967
1520527960746943167,-0.1056572592,0.1667664600,0.0679978806,0.4642984361,-1.4222120228,8.6225710409
1520527960751959167,-0.1003599701,0.1798735470,0.0707935773,0.4883497904,-1.4198156152,8.6618474955
1520527960756974167,-0.0923064033,0.1862762307,0.0748857384,0.5580987177,-1.4426047155,8.6588665318
1520527960761990167,-0.0824949404,0.1888784930,0.0838155585,0.5797449366,-1.4797797545,8.6354492112
1520527960767007167,-0.0736822081,0.1952639897,0.0943994211,0.5869603429,-1.5037631249,8.6621316786
1520527960772023167,-0.0636201520,0.1966978986,0.1044020657,0.6001885877,-1.5025650148,8.6712989053
1520527960777038167,-0.0533070638,0.1969619973,0.1160186267,0.5629089886,-1.4929689879,8.7134895897
1520527960782054167,-0.0422447796,0.1963638926,0.1232983838,0.4715138424,-1.4330048486,8.7387257300
1520527960787071167,-0.0321877770,0.1963510769,0.1295022705,0.3765109931,-1.4581793983,8.7512964252
1520527960792087167,-0.0226360065,0.1963468055,0.1324605399,0.3151800397,-1.4821574301,8.7100795875
1520527960797103167,-0.0110746334,0.1972240312,0.1329868317,0.2454311124,-1.4869485596,8.7351681811
1520527960802118167,-0.0025325393,0.1963561388,0.1318821102,0.2081515133,-1.4785516731,8.6611456394
1520527960807135167,0.0042456723,0.1937472628,0.1277913125,0.1792898882,-1.5373073060,8.5661880542
1520527960812149167,0.0147909945,0.1908550350,0.1212563778,0.1335923151,-1.5840702235,8.5062469649
1520527960817165167,0.0265938184,0.1870818616,0.1174178991,0.1239717734,-1.6044548614,8.4784690292
1520527960822181167,0.0366357040,0.1824360307,0.1127643806,0.1035281222,-1.6044532692,8.4728572954
1520527960827197167,0.0486895170,0.1777858885,0.1100009496,0.1035281222,-1.6272369372,8.5367974304
1520527960832213167,0.0579842335,0.1766298207,0.1078104213,0.1167563671,-1.6212422654,8.5668785708
1520527960837230167,0.0702909683,0.1713889951,0.1080180822,0.0530202783,-1.6224364418,8.6604716245
1520527960842245167,0.0803398008,0.1702324942,0.1060966997,0.0205509501,-1.5996502450,8.7118997776
1520527960847261167,0.0893849788,0.1705339790,0.1036472076,-0.0275517585,-1.5600748646,8.8041387640
1520527960852277167,0.1001863435,0.1682115070,0.1019860785,-0.0636287899,-1.5324918250,8.9206774163
1520527960857294167,0.1102336313,0.1641331481,0.1030184699,-0.0540082481,-1.5252977318,8.9577653664
1520527960862309167,0.1202807428,0.1597626762,0.1043191842,-0.0636287899,-1.4365605912,9.0449332723
1520527960867325167,0.1293210319,0.1545191138,0.1050740043,-0.0624262221,-1.3550191360,9.1017871059
1520527960872341167,0.1358485484,0.1478103600,0.1085278352,-0.0612236544,-1.3034561915,9.1412380137
1520527960877356167,0.1421291608,0.1425504175,0.1149692531,-0.0323620293,-1.2231160310,9.2047966641
1520527960882373167,0.1451380507,0.1343782636,0.1203123239,-0.0143235136,-1.2051303295,9.2627107459
1520527960887387167,0.1476470715,0.1285384458,0.1251330211,-0.0071081073,-1.1583644150,9.2928106541
1520527960892404167,0.1461327628,0.1221201112,0.1277923726,-0.0179312168,-1.1199910785,9.3382021950
1520527960897420167,0.1428595387,0.1159932003,0.1301866682,0.0109304084,-1.1044045008,9.3599868074
1520527960902435167,0.1363183752,0.1095758103,0.1317731705,0.0325766272,-1.0948130633,9.3713882012
1520527960907452167,0.1290229585,0.1011104205,0.1363215163,0.0602356846,-1.0648367069,9.3676033195
1520527960912468167,0.1182141567,0.0973109037,0.1390181442,0.0566279814,-1.0648364259,9.3629898589
1520527960917484167,0.1104276762,0.0999295839,0.1393231663,-0.0155260813,-1.0600342446,9.4566590013
1520527960922500167,0.1041428768,0.0993494525,0.1374365669,-0.0552108159,-1.0864122432,9.4756652969
1520527960927515167,0.0971116571,0.1031346946,0.1374785353,-0.0552108159,-1.0504380305,9.4489009057
1520527960932532167,0.0910834804,0.1066347734,0.1353520465,-0.0876801441,-1.0264526932,9.5026521774
1520527960937547167,0.0875689506,0.1101336515,0.1340325282,-0.0696416284,-1.0036704300,9.4745629292
1520527960942564167,0.0843128901,0.1185847082,0.1332914274,-0.0696416284,-0.9353194259,9.4570641175
1520527960947579167,0.0823014880,0.1180018799,0.1330201691,-0.1273648786,-0.9089338409,9.4727081062
1520527960952595167,0.0790319648,0.1165458627,0.1322034834,-0.1153392015,-0.8621683010,9.5178690656
1520527960957611167,0.0802812454,0.1118871162,0.1310833968,-0.1117314984,-0.8441814756,9.4852763796
1520527960962626167,0.0822838070,0.1069380091,0.1296891411,-0.1429982589,-0.8549713043,9.4518890605
1520527960967643167,0.0865482775,0.1019890596,0.1285612308,-0.1021109567,-0.8357882419,9.4363645077
1520527960972659167,0.0918197429,0.0967418350,0.1301346894,-0.0660339253,-0.8597738602,9.4569553340
1520527960977673167,0.0958357647,0.0903198390,0.1349481401,0.0085252729,-0.8813641947,9.4527642367
1520527960982691167,0.1036200811,0.0830251662,0.1397479207,0.0205509501,-0.9065470802,9.4166452797
1520527960987706167,0.1111472534,0.0737009012,0.1407449638,0.0409946012,-0.9005529703,9.4280618866
1520527960992723167,0.1186776757,0.0646585512,0.1452613267,0.0241586532,-0.8369972166,9.4316502143
1520527960997737167,0.1252080501,0.0594038062,0.1498084566,-0.0143235136,-0.8238036749,9.4692005199
1520527961002754167,0.1314885410,0.0579493450,0.1497856731,-0.0792621701,-0.7746338599,9.4651360742
1520527961007769167,0.1377751870,0.0594014447,0.1524905794,-0.0684390607,-0.7698381411,9.4313238767
1520527961012786167,0.1418070473,0.0646348297,0.1573929535,-0.0864775764,-0.7314642427,9.4349484655
1520527961017801167,0.1486051785,0.0727896989,0.1598775114,-0.1742650194,-0.7002797545,9.4346103879
1520527961022818167,0.1521454850,0.0864744952,0.1643041966,-0.2548370562,-0.6906803559,9.5062760531
1520527961027833167,0.1569372362,0.1001765376,0.1625059926,-0.3293962544,-0.7098607957,9.5244526354
1520527961032850167,0.1612287223,0.1159195317,0.1601831919,-0.3546501764,-0.7110579693,9.5525910658
1520527961037865167,0.1640183550,0.1360327030,0.1578965377,-0.3847143692,-0.7350384363,9.5738256702
1520527961042882167,0.1660458229,0.1511971410,0.1536796701,-0.3342065253,-0.8009950933,9.6419648648
1520527961047898167,0.1640466094,0.1602329158,0.1523995900,-0.3053449002,-0.7926033581,9.6684050690
1520527961052914167,0.1642985277,0.1619871489,0.1502480946,-0.2259754311,-0.7842155567,9.6850565092
1520527961057929167,0.1627869515,0.1593648258,0.1499603413,-0.1490110975,-0.7722301467,9.6819714043
1520527961062944167,0.1587549461,0.1491560509,0.1531365516,-0.1213520401,-0.7170718414,9.7014048456
1520527961067961167,0.1509525761,0.1374852344,0.1576613769,-0.1562265037,-0.6331292957,9.7342024692
1520527961072977167,0.1449063106,0.1252396223,0.1594730299,-0.2235702957,-0.5335953956,9.8033273905
1520527961077992167,0.1373470694,0.1124252190,0.1558721192,-0.2824961136,-0.4424561340,9.8084606443
1520527961083008167,0.1240107699,0.1013554016,0.1528363735,-0.3450296347,-0.3585114341,9.7625016953
1520527961088024167,0.1114192246,0.0868038338,0.1443616326,-0.4039554526,-0.2553807683,9.7594882480
1520527961093040167,0.1000829384,0.0702079676,0.1377628178,-0.3666758535,-0.1846343868,9.7300028014
1520527961098055167,0.0869897559,0.0536041279,0.1338727290,-0.3907272078,-0.1474591605,9.7697135475
1520527961103072167,0.0741510399,0.0393314629,0.1299999581,-0.3811066661,-0.1198796800,9.7556472848
1520527961108088167,0.0613125003,0.0253509108,0.1258588645,-0.3967400463,-0.1414629901,9.7674419382
1520527961113103167,0.0507397352,0.0119430874,0.1257762049,-0.3738912598,-0.2194088971,9.7510255338
1520527961118120167,0.0396688614,0.0023252512,0.1249117413,-0.4123734266,-0.3021465892,9.7596157877
1520527961123135167,0.0311188480,-0.0026345469,0.1259720010,-0.4256016715,-0.3633017206,9.7051834137
1520527961128150167,0.0245778178,-0.0084669826,0.1267513118,-0.4195888329,-0.4064712441,9.6854105374
1520527961133167167,0.0198018189,-0.0099279612,0.1275607018,-0.4051580203,-0.4052732276,9.7224575140
1520527961138183167,0.0162774332,-0.0140065377,0.1267244750,-0.4496530257,-0.3920792175,9.6891755637
1520527961143199167,0.0122383593,-0.0238991614,0.1207043480,-0.4965531665,-0.3321185436,9.7732479586
1520527961148215167,0.0082036449,-0.0291230768,0.1122848773,-0.5133891145,-0.2481774027,9.8047078624
1520527961153231167,0.0029014005,-0.0398721356,0.0994967672,-0.5819354741,-0.1642322345,9.8750218341
1520527961158245167,-0.0024065169,-0.0538220537,0.0850609278,-0.5831380418,-0.1342536302,9.9644893902
1520527961163263167,-0.0059580278,-0.0703966570,0.0716839972,-0.5242122239,-0.1186693941,9.9824949443
1520527961168279167,-0.0135283913,-0.0881500286,0.0626343761,-0.5157942499,-0.0587130285,9.9544630870
1520527961173294167,-0.0228633429,-0.1088128356,0.0516719700,-0.5494661459,-0.0323293167,9.9047929131
1520527961178309167,-0.0264175394,-0.1280128134,0.0393572151,-0.5638969584,-0.0071462439,9.9351245605
1520527961183326167,-0.0297250945,-0.1483680328,0.0232454587,-0.5530738490,0.0719961811,9.9535363418
1520527961188342167,-0.0362973821,-0.1684389751,0.0093063599,-0.5723149324,0.1211624370,9.8711634591
1520527961193359167,-0.0406067962,-0.1890983561,-0.0022064725,-0.5121865468,0.1919070390,9.8623742076
1520527961198374167,-0.0393881262,-0.2123882300,-0.0099619380,-0.4376273486,0.2638496575,9.7964982723
1520527961203389167,-0.0404265353,-0.2356942870,-0.0120317392,-0.3702835567,0.2962212040,9.8051083686
1520527961208405167,-0.0394473911,-0.2569744332,-0.0086787947,-0.2873063845,0.3417820775,9.7740405420
1520527961213422167,-0.0339396382,-0.2765139698,-0.0018038160,-0.2500267854,0.3765542463,9.7376173118
1520527961218437167,-0.0284276670,-0.2948967093,0.0083266058,-0.1995189414,0.3777494530,9.7592052652
1520527961223454167,-0.0221467527,-0.3022065415,0.0185401046,-0.2067343477,0.3537672065,9.7534881626
1520527961228467167,-0.0148624465,-0.3106807895,0.0284722983,-0.2043292123,0.3417756150,9.8569072578
1520527961233486167,-0.0090812249,-0.3153661726,0.0378951006,-0.1923035351,0.2758219551,9.9114752867
1520527961238501167,-0.0010342209,-0.3165518699,0.0465287418,-0.1538213683,0.2350481836,9.9657612483
1520527961243517167,0.0042497702,-0.3174501794,0.0562519236,-0.2055317800,0.2014762791,9.9267844128
1520527961248533167,0.0110488148,-0.3125180224,0.0652051291,-0.2091394831,0.1463161006,9.9338461813
1520527961253550167,0.0175915032,-0.3104961669,0.0727838410,-0.2283805665,0.1691012672,10.0025777380
1520527961258563167,0.0196166699,-0.3020561545,0.0769027651,-0.2969269262,0.1942885547,9.9939232185
1520527961263580167,0.0216331333,-0.2970996446,0.0761251861,-0.3582578795,0.2626443355,10.0444257141
1520527961268596167,0.0231454191,-0.2918453912,0.0729158506,-0.3414219315,0.3561759773,10.0662513700
1520527961273612167,0.0241547896,-0.2903953590,0.0756305580,-0.2728755719,0.4580975747,10.0852412351
1520527961278627167,0.0261726996,-0.2863217439,0.0780928605,-0.2620524625,0.6247772506,10.1430805492
1520527961283644167,0.0266846631,-0.2813767512,0.0813762703,-0.1550239360,0.7422846763,10.2128149851
1520527961288660167,0.0304660596,-0.2758535369,0.0868224260,-0.0900852795,0.8478039760,10.2527550486
1520527961293676167,0.0322378536,-0.2712118198,0.0947005592,-0.0455902742,0.9329394806,10.3428861669
1520527961298692167,0.0330082393,-0.2624852857,0.1004473154,0.0313740595,0.8969592737,10.4688458144
1520527961303707167,0.0370483678,-0.2523034627,0.1072813033,0.0482100075,0.8717760135,10.5732994557
1520527961308722167,0.0398343308,-0.2415444620,0.1160158921,0.0349817626,0.8765736055,10.6408278833
1520527961313739167,0.0393475638,-0.2328162348,0.1209533443,0.0145381115,0.8286095808,10.7514773184
1520527961318755167,0.0386135556,-0.2173695081,0.1197198385,0.0073227052,0.7194883642,10.7714104059
1520527961323771167,0.0398825519,-0.2054098669,0.1152093711,-0.0203363522,0.6775206035,10.7287212227
1520527961328786167,0.0393951851,-0.1911183818,0.1101788637,-0.0648313576,0.6091730648,10.6536816051
1520527961333803167,0.0396616285,-0.1762409185,0.1040692187,-0.0227414876,0.5228316762,10.6487075448
1520527961338819167,0.0366619320,-0.1619526032,0.0998550163,-0.0371723002,0.5240319406,10.7453047843
1520527961343836167,0.0346650590,-0.1479487228,0.0932018108,0.0433997366,0.5096359803,10.7131566908
1520527961348851167,0.0321537526,-0.1429794165,0.0870217148,0.1119460962,0.5504014161,10.7868269582
1520527961353866167,0.0276265082,-0.1435537597,0.0832380271,0.1732770496,0.6223450648,10.8465913255
1520527961358882167,0.0208350182,-0.1476328876,0.0821373219,0.2009361070,0.7518500764,10.8706008436
1520527961363898167,0.0175582343,-0.1549187808,0.0820878122,0.2093540810,0.8525772163,10.9238793056
1520527961368914167,0.0107719310,-0.1569662298,0.0839786734,0.2057463779,0.9173310802,10.9645263149
1520527961373931167,0.0022296173,-0.1560976090,0.0848128489,0.1756821850,0.9437145110,10.9973332466
1520527961378945167,-0.0055602425,-0.1528823195,0.0799819451,0.1215666379,1.0060740277,10.9850155850
1520527961383962167,-0.0123446797,-0.1467404077,0.0705721251,0.1275794765,1.0216623849,10.9663475550
1520527961388978167,-0.0188770222,-0.1385521498,0.0587424869,0.0758690649,1.0348569569,11.0447016546
1520527961393994167,-0.0256567430,-0.1256938252,0.0439728799,0.0421971689,1.0864226176,11.0438169707
1520527961399010167,-0.0331790068,-0.1035071205,0.0276525364,0.0734639294,1.1223943952,11.0771797337
1520527961404025167,-0.0396972201,-0.0824870169,0.0118625255,0.1396051536,1.1619608778,11.0718487916
1520527961409040167,-0.0464670890,-0.0635147162,-0.0009665754,0.2526465187,1.2087185503,11.1102158065
1520527961414058167,-0.0519785349,-0.0457191163,-0.0094781680,0.3320159877,1.2458857219,11.1372984782
1520527961419073167,-0.0579878426,-0.0302810130,-0.0082669595,0.4570830299,1.2470751217,11.0954049445
1520527961424089167,-0.0665024939,-0.0131130695,-0.0005446438,0.4618933007,1.3346119979,11.0441384286
1520527961429104167,-0.0717491627,0.0040525119,0.0085243340,0.4859446550,1.3849740225,11.0182880482
1520527961434121167,-0.0739721969,0.0261684410,0.0192487789,0.4606907330,1.4605218361,10.9835958674
1520527961439136167,-0.0764448990,0.0506204470,0.0280976540,0.4125880245,1.5036946377,10.8922126010
1520527961444152167,-0.0761482920,0.0812035375,0.0329298914,0.3632827482,1.5276812862,10.8461833634
1520527961449169167,-0.0778661215,0.1094576778,0.0366658944,0.3163826074,1.5108969730,10.8141162006
1520527961454185167,-0.0740566508,0.1374255134,0.0393072228,0.3416365294,1.4473405637,10.6756372389
1520527961459199167,-0.0725099281,0.1636397851,0.0435626886,0.3332185554,1.4257566917,10.6524973433
1520527961464217167,-0.0669481872,0.1857769772,0.0475090177,0.3620801805,1.3741914057,10.6278616805
1520527961469233167,-0.0596310083,0.2044146019,0.0527781322,0.4330316756,1.3154279990,10.6086340765
1520527961474249167,-0.0520663647,0.2177964772,0.0620649529,0.5039831707,1.2590628732,10.5917284218
1520527961479263167,-0.0465224970,0.2227237714,0.0726437674,0.4823369518,1.2206920655,10.6035979712
1520527961484281167,-0.0387211190,0.2247388348,0.0829256046,0.4630958684,1.1955116152,10.5712697775
1520527961489296167,-0.0316877548,0.2183121928,0.0898978218,0.3861315348,1.2087081541,10.5348174318
1520527961494312167,-0.0269285235,0.2054865883,0.0922260513,0.3584724774,1.1931214827,10.4990753870
1520527961499327167,-0.0216747902,0.1865413773,0.0947772086,0.3127749043,1.2255018332,10.4553271367
1520527961504344167,-0.0156773182,0.1620688968,0.0940381763,0.2454311124,1.2231087973,10.3909048971
1520527961509359167,-0.0164772717,0.1306099990,0.0897412948,0.2249874613,1.2386992151,10.2748742862
1520527961514375167,-0.0140179500,0.0942017578,0.0843183699,0.1853027267,1.3274386972,10.2740118780
1520527961519391167,-0.0118112913,0.0566271516,0.0791575652,0.1937207007,1.3730053777,10.2843448033
1520527961524407167,-0.0133758323,0.0173005762,0.0748020606,0.2117592164,1.4473506790,10.2910695922
1520527961529422167,-0.0126692748,-0.0173731588,0.0742655674,0.1828975913,1.5456824416,10.3052003552
1520527961534439167,-0.0162340408,-0.0482460000,0.0683549906,0.2526465187,1.6655910516,10.3334581268
1520527961539454167,-0.0177762354,-0.0724264075,0.0662794536,0.3223954460,1.7651142745,10.3512764817
1520527961544470167,-0.0198089293,-0.0878662045,0.0645420885,0.3512570711,1.8694372435,10.3381102443
1520527961549487167,-0.0198133280,-0.0907785929,0.0639787659,0.3801186962,1.9581713870,10.3179863446
1520527961554502167,-0.0210512550,-0.0767911710,0.0635467158,0.3608776128,1.9821556940,10.3448795497
1520527961559517167,-0.0247889233,-0.0514334528,0.0605005743,0.3199903106,1.9977477040,10.3301544488
1520527961564533167,-0.0227357178,-0.0173290205,0.0564282072,0.3488519357,1.9929488944,10.2578252796
1520527961569549167,-0.0219343411,0.0208572165,0.0513071133,0.3969546442,2.0085339735,10.1934239585
1520527961574566167,-0.0211391234,0.0546734141,0.0458821272,0.4186008630,2.0097314281,10.1176727411
1520527961579581167,-0.0221041854,0.0876147689,0.0404537389,0.4438547850,2.0193225846,10.0732561099
1520527961584598167,-0.0220668630,0.1202731458,0.0320452558,0.3825238317,2.0013402549,9.9646290762
1520527961589613167,-0.0245570854,0.1444905848,0.0197893279,0.3404339617,1.9737633033,9.8941748668
1520527961594629167,-0.0247986811,0.1605566991,0.0050320400,0.3079646335,1.9605752874,9.8619637353
1520527961599645167,-0.0247980812,0.1713845462,-0.0122006432,0.3151800397,1.9246005128,9.8096321072
1520527961604662167,-0.0275743138,0.1705450027,-0.0254589274,0.3019517949,1.9425886494,9.7481496932
1520527961609676167,-0.0306039112,0.1688341209,-0.0398055977,0.3055594980,1.9653720364,9.6923094507
1520527961614693167,-0.0316342050,0.1589652600,-0.0542182482,0.3428390971,2.0145338903,9.5524413766
1520527961619709167,-0.0334253461,0.1441432952,-0.0689378368,0.3464468003,2.1020708603,9.4058907614
1520527961624725167,-0.0342041293,0.1313468473,-0.0782328129,0.3837263994,2.2135880162,9.2996640563
1520527961629740167,-0.0352371164,0.1159256549,-0.0867356923,0.4366393787,2.2867314610,9.1758904450
1520527961634756167,-0.0332412862,0.1060230108,-0.0881677404,0.5015780352,2.3370903011,9.0915348950
1520527961639773167,-0.0322359655,0.1036814019,-0.0841292036,0.5448704729,2.3574723166,8.9469877838
1520527961644789167,-0.0312125677,0.1126950484,-0.0767574156,0.5665166917,2.3886482817,8.8433158781
1520527961649804167,-0.0269048197,0.1342380527,-0.0687550106,0.5184139832,2.3826563260,8.7659262821
1520527961654820167,-0.0203235936,0.1636456831,-0.0593440534,0.4198034308,2.3730708827,8.7053018219
1520527961659835167,-0.0180122403,0.1974347911,-0.0544910957,0.3079646335,2.3754778739,8.6750101667
1520527961664852167,-0.0114328450,0.2318243673,-0.0555936360,0.1299846119,2.4282539142,8.6650696246
1520527961669868167,-0.0091333901,0.2659456519,-0.0658890254,-0.0239440553,2.4858246430,8.7408889566
1520527961674884167,-0.0080932834,0.3000759138,-0.0796991779,-0.0491979773,2.5505801928,8.7968545282
1520527961679899167,-0.0078163528,0.3286754018,-0.0957145361,-0.0528056804,2.6093383545,8.8514531116
1520527961684916167,-0.0135844999,0.3459034313,-0.1099115719,0.0277663563,2.6333148877,8.9226984112
1520527961689931167,-0.0198658963,0.3535075617,-0.1212050312,0.1107435285,2.5865419487,9.0950958157
1520527961694947167,-0.0241404345,0.3538067421,-0.1247119705,0.2358105707,2.5217786252,9.2101560296
1520527961699964167,-0.0321929154,0.3430099807,-0.1201800092,0.3043569303,2.4774050909,9.3803672682
1520527961704979167,-0.0445226671,0.3287163881,-0.1162078825,0.3284082846,2.4078530731,9.5917111884
1520527961709994167,-0.0560958367,0.3170484653,-0.1132993318,0.2658747635,2.3838751350,9.6016403898
1520527961715011167,-0.0654081088,0.3047986595,-0.1103994278,0.2406208415,2.4042624891,9.6599735149
1520527961720027167,-0.0729598386,0.2931301268,-0.1066867070,0.2779004406,2.3754802154,9.6712601618
1520527961725042167,-0.0817728101,0.2794279659,-0.1054221272,0.3380288263,2.3179167921,9.6602717417
1520527961730058167,-0.0880706920,0.2633782310,-0.0976868978,0.4173982953,2.2627501511,9.5840136406
1520527961735074167,-0.0926055735,0.2476089149,-0.0856239781,0.4691087070,2.1464295026,9.5185436876
1520527961740091167,-0.0976404573,0.2335869807,-0.0732762405,0.4811343841,2.0445016300,9.4859860002
1520527961745106167,-0.1001680296,0.2149016932,-0.0601571018,0.4438547850,1.9413784571,9.4457743817
1520527961750123167,-0.1024421469,0.1979655399,-0.0472956373,0.3789161285,1.8826256340,9.3918429865
1520527961755138167,-0.1047126887,0.1880422828,-0.0416855578,0.3031543626,1.8778349729,9.2914785584
1520527961760153167,-0.1064860351,0.1775517506,-0.0417623219,0.2141643518,1.9306040823,9.2783475542
1520527961765169167,-0.1075057790,0.1720383606,-0.0504601622,0.1492256953,1.9989601441,9.2847236947
1520527961770186167,-0.1057555081,0.1738245069,-0.0642479315,0.0890973097,2.0721123929,9.3328855199
1520527961775200167,-0.1045062901,0.1785323143,-0.0809885413,0.0818819034,2.1068880272,9.3863804613
1520527961780217167,-0.1037633198,0.1812031469,-0.0988259628,0.1203640702,2.1668420512,9.4649732215
1520527961785234167,-0.1027719125,0.1809565905,-0.1153333524,0.1792898882,2.2387858873,9.5410310143
1520527961790249167,-0.1000164933,0.1815724935,-0.1272380597,0.2310002998,2.2711586513,9.6694941037
1520527961795265167,-0.0967623067,0.1783962240,-0.1375493250,0.3260031491,2.2639564097,9.7255214740
1520527961800282167,-0.0897466980,0.1658818294,-0.1422572662,0.4510701913,2.2339681584,9.8207913298
1520527961805297167,-0.0829871516,0.1454802865,-0.1397200247,0.4991728998,2.1524228632,9.8831584161
1520527961810312167,-0.0747196828,0.1242008102,-0.1355689775,0.5376550666,2.0564886322,10.0049025167
1520527961815329167,-0.0672143002,0.0944599607,-0.1274228111,0.5821500720,1.9617530734,10.1196140588
1520527961820345167,-0.0594664162,0.0588944328,-0.1204037568,0.6086065617,1.8310447067,10.1787533473
1520527961825360167,-0.0474490435,0.0230464785,-0.1161003187,0.6326579159,1.7147262124,10.3099549389
1520527961830376167,-0.0366908936,-0.0151345012,-0.1112712400,0.6422784577,1.5768243145,10.3669408262
1520527961835392167,-0.0299509727,-0.0512766360,-0.1066896780,0.6290502128,1.4689027066,10.3927419893
1520527961840409167,-0.0194394877,-0.0806921401,-0.1107214545,0.5388576343,1.3981604461,10.4006617233
1520527961845425167,-0.0076668000,-0.1063176962,-0.1152677563,0.5063883061,1.3681844644,10.4660870547
1520527961850440167,0.0028493112,-0.1298945833,-0.1233132596,0.4546778944,1.3514005258,10.4759038945
1520527961855456167,0.0106051027,-0.1476317511,-0.1361789933,0.4450573527,1.3909729091,10.4573646435
1520527961860471167,0.0218784663,-0.1641947180,-0.1517478278,0.4282214047,1.4845071733,10.4830044729
1520527961865488167,0.0303933097,-0.1752166346,-0.1694336569,0.4222085662,1.5900319989,10.5375808621
1520527961870504167,0.0414299820,-0.1807056311,-0.1854586392,0.4366393787,1.7435208492,10.5372907260
1520527961875519167,0.0517155255,-0.1856187098,-0.1990428621,0.4378419465,1.8778244829,10.5754988055
1520527961880536167,0.0615038776,-0.1885010350,-0.2093640392,0.5124011447,2.0181181056,10.6095005979
1520527961885552167,0.0702949850,-0.1902393403,-0.2118286261,0.5701243949,2.1308328097,10.6262609966
1520527961890568167,0.0793427543,-0.1896537553,-0.2115704361,0.5893654783,2.1907883323,10.7131760453
1520527961895583167,0.0881393110,-0.1896539515,-0.2102340419,0.5989860200,2.2195669532,10.7281622121
1520527961900599167,0.0959359493,-0.1867450668,-0.2072502746,0.6254425097,2.1751966970,10.6721650566
1520527961905614167,0.1032325853,-0.1820888004,-0.2039816895,0.6025937231,2.0936569277,10.6701426799
1520527961910630167,0.1082718795,-0.1771551472,-0.1958368546,0.6013911554,1.9605524344,10.6563384541
1520527961915647167,0.1087879751,-0.1704676748,-0.1903757392,0.5316422281,1.7746911010,10.5560920710
1520527961920663167,0.1105722242,-0.1550374459,-0.1851208107,0.3717007222,1.6032264773,10.5345731799
1520527961925678167,0.1105948763,-0.1404776891,-0.1814925598,0.3115723366,1.4401480627,10.4818588410
1520527961930695167,0.1096045942,-0.1299904252,-0.1805990241,0.2851158469,1.2650756214,10.4241798780
1520527961935710167,0.1063479222,-0.1203665462,-0.1840366915,0.2646721958,1.1067906777,10.3989660498
1520527961940726167,0.1013299079,-0.1148336661,-0.1834440267,0.2598619249,1.0396391886,10.4048890728
1520527961945741167,0.0965552302,-0.1148355368,-0.1834351589,0.2742927375,1.0204518180,10.4163887611
1520527961950758167,0.0887581450,-0.1206699216,-0.1821124227,0.3163826074,0.9736820633,10.4264839839
1520527961955773167,0.0792062725,-0.1259338814,-0.1764532390,0.3536622065,1.0228439172,10.4586132150
1520527961960788167,0.0714064939,-0.1373205978,-0.1692207317,0.4438547850,1.0779973522,10.4971944406
1520527961965806167,0.0671317165,-0.1443380815,-0.1608792287,0.4811343841,1.1271592061,10.5281615277
1520527961970821167,0.0593358936,-0.1542744311,-0.1512006929,0.5196165509,1.1751218259,10.5486587835
1520527961975836167,0.0505381764,-0.1612951439,-0.1423096971,0.5352499312,1.1967051360,10.5601070092
1520527961980854167,0.0427471090,-0.1662714006,-0.1350282819,0.5472756083,1.2003016207,10.5936886253
1520527961985870167,0.0357117846,-0.1703753937,-0.1269299600,0.5568961500,1.1739197821,10.5715399752
1520527961990885167,0.0296843880,-0.1706829814,-0.1217806097,0.5448704729,1.0635997997,10.5822239005
1520527961995901167,0.0264291978,-0.1651617955,-0.1165919316,0.5556935823,0.9856548292,10.5752216983
1520527962000917167,0.0249402267,-0.1543949989,-0.1113665051,0.5833526397,0.9017128454,10.5111164183
1520527962005934167,0.0234537177,-0.1424655779,-0.1050500027,0.6182271034,0.7698046827,10.4481498255
1520527962010948167,0.0222230394,-0.1270387157,-0.0989778358,0.6615195411,0.6834632005,10.4536233556
1520527962015964167,0.0222548810,-0.1078262761,-0.0917969189,0.6206322388,0.5491626575,10.4041801035
1520527962020981167,0.0225329210,-0.0912310998,-0.0865302977,0.5208191186,0.4436460740,10.3157694406
1520527962025995167,0.0225624456,-0.0682058947,-0.0885190412,0.4679061393,0.3860914547,10.2605576815
1520527962031011167,0.0208278643,-0.0483844233,-0.0913406092,0.4510701913,0.3489194128,10.1828941569
1520527962036029167,0.0221033293,-0.0311776753,-0.0966226987,0.4522727590,0.3345296341,10.1782479081
1520527962041045167,0.0193507564,-0.0183388999,-0.1035539422,0.4354368110,0.4172716345,10.0737381386
1520527962046059167,0.0188592575,-0.0057898945,-0.1107621553,0.4041700505,0.4664388271,10.0821295348
1520527962051077167,0.0156011780,0.0029605595,-0.1144770379,0.4618933007,0.5143999483,10.0187651450
1520527962056093167,0.0135977774,0.0061562604,-0.1112022994,0.5196165509,0.5491705249,9.9170628675
1520527962061107167,0.0110934023,0.0087609827,-0.1049550688,0.5761372334,0.5143910506,9.9072494890
1520527962066124167,0.0078374123,0.0107724425,-0.0949232417,0.5111985769,0.4556382275,9.8556423818
1520527962071140167,0.0058431502,0.0159867107,-0.0837871106,0.3500545034,0.3189487697,9.7759940872
1520527962076154167,0.0038532515,0.0273331657,-0.0774741209,0.1516308308,0.1762665132,9.7280923828
1520527962081171167,0.0013649031,0.0462758176,-0.0786776826,-0.0371723002,0.0383800691,9.6975245200
1520527962086188167,0.0021304785,0.0623357698,-0.0910019243,-0.2307857020,-0.0515403834,9.7308746213
1520527962091203167,0.0011328811,0.0792866687,-0.1098093312,-0.3835118015,-0.1030915268,9.6789528232
1520527962096219167,-0.0003776012,0.0915883301,-0.1335212001,-0.4857300571,-0.0623127913,9.6194765098
1520527962101235167,-0.0013991641,0.0954473213,-0.1600039309,-0.3967400463,-0.0203498073,9.6557580153
1520527962106252167,-0.0026813643,0.0882146629,-0.1795364789,-0.2163548894,0.0635759733,9.6446232514
1520527962111265167,-0.0059841366,0.0666727809,-0.1878112967,0.0037150021,0.1187192930,9.6156981256
1520527962116283167,-0.0077735449,0.0430641176,-0.1858237324,0.0951101483,0.2518167619,9.6228137523
1520527962121299167,-0.0070411794,0.0208907800,-0.1754427971,0.1576436693,0.3633319509,9.6209341969
1520527962126313167,-0.0042954830,-0.0018769222,-0.1604707615,0.1925181330,0.4208879751,9.5856743033
1520527962131330167,0.0022254589,-0.0205644927,-0.1452040577,0.2273925967,0.4904354035,9.5469162845
1520527962136346167,0.0082454771,-0.0372089262,-0.1312735883,0.1744796173,0.4448721885,9.6299879626
1520527962141362167,0.0142756571,-0.0468623164,-0.1164781272,0.1239717734,0.3693302755,9.7223626158
1520527962146377167,0.0225735091,-0.0524368940,-0.1011146517,0.0915024451,0.2302325152,9.8122993801
1520527962151394167,0.0321235545,-0.0571186149,-0.0925104878,-0.0131209459,0.1355085702,9.8471122725
1520527962156409167,0.0401684573,-0.0559557536,-0.0903521635,-0.1381879881,0.0311930940,9.8449448990
1520527962161424167,0.0492124081,-0.0547721025,-0.0957709911,-0.2259754311,-0.0959089537,9.7622489534
1520527962166441167,0.0549913246,-0.0512542845,-0.1027892420,-0.1923035351,-0.1822496867,9.7492218207
1520527962171457167,0.0620289346,-0.0462797800,-0.1095281652,-0.2103420508,-0.2362096008,9.6553163566
1520527962176472167,0.0673061787,-0.0415944355,-0.1173482280,-0.2536344885,-0.2841718460,9.5604887079
1520527962181489167,0.0733464696,-0.0304997929,-0.1245796913,-0.2211651602,-0.3417331151,9.5532559359
1520527962186505167,0.0763665131,-0.0220251503,-0.1331782912,-0.1778727226,-0.3980960868,9.5215116261
1520527962191521167,0.0763698650,-0.0164750041,-0.1382764246,-0.1502136652,-0.4352715941,9.5061707879
1520527962196537167,0.0778802141,-0.0129705148,-0.1409580069,-0.0936929827,-0.5204149662,9.5394058480
1520527962201553167,0.0786359571,-0.0120982511,-0.1401411001,-0.0407800033,-0.5659864233,9.6040153219
1520527962206569167,0.0801443695,-0.0103435258,-0.1422949291,0.0229560855,-0.5815802128,9.7173002628
1520527962211583167,0.0786340714,-0.0112138995,-0.1439220734,0.0253612209,-0.6127580511,9.7672794455
1520527962216600167,0.0781317404,-0.0100441877,-0.1455355230,0.0722613617,-0.5635969465,9.8399900745
1520527962221616167,0.0809064519,-0.0033456312,-0.1438662506,0.1841001590,-0.4844623889,9.8876343740
1520527962226631167,0.0831761899,0.0016044213,-0.1422093833,0.2189746227,-0.3873347308,9.8906866427
1520527962231648167,0.0867114352,0.0109155360,-0.1367338607,0.1913155653,-0.2422365854,9.8803550734
1520527962236664167,0.0925142662,0.0248911460,-0.1317680612,0.1624539402,-0.0455753081,9.9118221099
1520527962241680167,0.0950484600,0.0403347821,-0.1313843590,0.1083383931,0.0971266170,9.8773453674
1520527962246695167,0.0980787004,0.0525806695,-0.1337315031,0.0770716326,0.1786706010,9.7636800763
1520527962251712167,0.1003513475,0.0616188466,-0.1352900634,0.0806793357,0.2494196050,9.6764151735
1520527962256728167,0.1011064318,0.0624932955,-0.1352847943,0.1287820442,0.1414932204,9.5145142022
1520527962261742167,0.1011168523,0.0677272906,-0.1311865903,0.1384025859,-0.0012052392,9.3820753023
1520527962266760167,0.1013781677,0.0697430425,-0.1222434809,0.0758690649,-0.2434267344,9.2864622236
1520527962271776167,0.1006341114,0.0714662876,-0.1130301817,-0.0107158105,-0.4616635480,9.2503292009
1520527962276790167,0.1008995708,0.0796149548,-0.1091807595,-0.1057186598,-0.6703065825,9.2909702598
1520527962281807167,0.1006524903,0.0807716533,-0.1059248497,-0.1237571755,-0.8897478751,9.3180891357
1520527962286823167,0.1001579805,0.0839643028,-0.1013001821,-0.1538213683,-1.0720148780,9.4208281696
1520527962291839167,0.1041849638,0.0880430762,-0.1004648888,-0.1682521809,-1.2159106048,9.4373789664
1520527962296855167,0.1039397769,0.0912423801,-0.0982756009,-0.1911009674,-1.2434890550,9.5073568945
1520527962301870167,0.1094807984,0.0991061009,-0.0960614784,-0.2416088114,-1.2470825426,9.6008235312
1520527962306886167,0.1150185229,0.1055172697,-0.0954817466,-0.2716730042,-1.2698638691,9.7312984979
1520527962311902167,0.1177904627,0.1101761345,-0.0938280358,-0.2608498948,-1.1739334782,9.8101253942
1520527962316918167,0.1182899358,0.1075524139,-0.0933078853,-0.2596473271,-1.0732057763,9.8565012228
1520527962321934167,0.1180349871,0.1055155374,-0.0944051637,-0.3762963952,-0.9412912447,9.8470486904
1520527962326949167,0.1119934339,0.0985228596,-0.0955295000,-0.3558527441,-0.7961968457,9.8792482451
1520527962331966167,0.1104805326,0.0929779501,-0.0925929334,-0.2993320616,-0.6786854862,9.9006642473
1520527962336982167,0.1097199479,0.0877312764,-0.0920904570,-0.2800909782,-0.5971454360,9.8841274360
1520527962341997167,0.1011664532,0.0780998561,-0.0875486700,-0.2849012490,-0.5311923381,9.8492456239
1520527962347013167,0.0928544092,0.0638180368,-0.0873716534,-0.2560396239,-0.5347920072,9.7629695580
1520527962352029167,0.0830241989,0.0454722689,-0.0931749694,-0.1610367746,-0.6211375168,9.7330754521
1520527962357045167,0.0714410440,0.0271054157,-0.0913997332,-0.0335645970,-0.7722391381,9.7040905979
1520527962362059167,0.0593569144,0.0081475838,-0.0866520049,0.0049175698,-0.9257321094,9.6934064160
1520527962367077167,0.0440152659,-0.0058667322,-0.0786138660,0.0963127160,-1.1391862229,9.6590227994
1520527962372093167,0.0294279099,-0.0195893684,-0.0705749042,0.1552385339,-1.2974773482,9.6376850132
1520527962377110167,0.0181098614,-0.0303917803,-0.0644136002,0.1275794765,-1.4029995512,9.6438678512
1520527962382124167,0.0045469264,-0.0301282937,-0.0559992513,0.1203640702,-1.5301078742,9.7614385708
1520527962387141167,-0.0054972487,-0.0278164528,-0.0502813339,0.0794767680,-1.5840660088,9.7676998828
1520527962392156167,-0.0185563393,-0.0211175430,-0.0510175710,0.0157406792,-1.5660739385,9.8031670293
1520527962397172167,-0.0306036365,-0.0100496569,-0.0509106910,-0.0732493316,-1.4953177226,9.8399906751
1520527962402189167,-0.0386294860,0.0039445763,-0.0548472362,-0.1971138060,-1.3418181015,9.8503437721
1520527962407204167,-0.0489159194,0.0208612383,-0.0622744467,-0.2596473271,-1.1391584996,9.8065933464
1520527962412220167,-0.0587068354,0.0337038128,-0.0716275351,-0.3161680096,-0.9676770170,9.7546797906
1520527962417236167,-0.0675019689,0.0404313483,-0.0823819047,-0.3450296347,-0.7866045652,9.7478112780
1520527962422252167,-0.0798247853,0.0416277552,-0.0956068918,-0.3895246401,-0.6355094065,9.6783683911
1520527962427267167,-0.0911501530,0.0358254998,-0.1067227327,-0.3630681504,-0.5887449905,9.5560401604
1520527962432283167,-0.1069964495,0.0267936611,-0.1094677037,-0.3342065253,-0.5767558341,9.4848567645
1520527962437300167,-0.1218430902,0.0151463113,-0.1146694625,-0.2885089522,-0.5935473591,9.4739690475
1520527962442315167,-0.1324194229,-0.0023474514,-0.1123483321,-0.2392036759,-0.6511099395,9.4096273510
1520527962447332167,-0.1455064543,-0.0175082086,-0.1110869335,-0.2873063845,-0.7326477419,9.3555543025
1520527962452348167,-0.1621040677,-0.0306466781,-0.1038514294,-0.2764832750,-0.8501643463,9.2532948842
1520527962457364167,-0.1719179730,-0.0434852772,-0.0987906709,-0.2584447593,-0.9748763552,9.1544586836
1520527962462379167,-0.1837387054,-0.0537022033,-0.0937061709,-0.2849012490,-1.0756020903,9.0676536227
1520527962467394167,-0.1945442140,-0.0575126465,-0.0869513545,-0.2584447593,-1.1451542954,9.0535182057
1520527962472411167,-0.1993133091,-0.0551914537,-0.0839486972,-0.2776858428,-1.1559450606,8.9967709569
1520527962477425167,-0.2028222131,-0.0496623535,-0.0817355573,-0.2836986813,-1.1703342774,8.8655212475
1520527962482444167,-0.2040628727,-0.0394709432,-0.0792205027,-0.3053449002,-1.1223669746,8.8598744451
1520527962487458167,-0.1987659756,-0.0251917622,-0.0788508268,-0.3330039576,-1.0791957652,8.8752094366
1520527962492474167,-0.1917101592,-0.0097405265,-0.0806398928,-0.3871195046,-0.9964508612,8.8512504567
1520527962497491167,-0.1833926149,0.0089135176,-0.0813246549,-0.4328170777,-0.9280962980,8.8574393163
1520527962502506167,-0.1693014349,0.0267124265,-0.0882493765,-0.4640838383,-0.9256955820,8.7787155202
1520527962507522167,-0.1544651205,0.0354670555,-0.0909156795,-0.4436401871,-0.9688662295,8.7622886151
1520527962512537167,-0.1408945368,0.0383978722,-0.0952473861,-0.3907272078,-1.0348230738,8.7618379063
1520527962517554167,-0.1273317939,0.0319883586,-0.0936982216,-0.3017371970,-1.2027096639,8.7820540308
1520527962522570167,-0.1130258495,0.0162482797,-0.0897866830,-0.3257885513,-1.2854484799,8.8288545745
1520527962527585167,-0.1002378127,-0.0053127963,-0.0886222647,-0.3931323432,-1.3178200264,8.8574330847
1520527962532602167,-0.0889568200,-0.0259988525,-0.0879894687,-0.4316145100,-1.3118213272,8.8833689668
1520527962537618167,-0.0766745838,-0.0466714031,-0.0922283656,-0.4604761351,-1.2986285347,8.9347713594
1520527962542634167,-0.0669046263,-0.0647130080,-0.0999596842,-0.4436401871,-1.2662530545,8.9566566516
1520527962547650167,-0.0558730742,-0.0801367589,-0.1057795073,-0.4436401871,-1.1775166632,8.9623808402
1520527962552664167,-0.0435786063,-0.0914835478,-0.1104883573,-0.3774989629,-1.1187639337,9.0000305150
1520527962557681167,-0.0295132187,-0.0967222273,-0.1108250553,-0.3726886921,-1.0624047085,9.0103880314
1520527962562696167,-0.0151880015,-0.0973059403,-0.1084211916,-0.4111708589,-1.0276266391,9.0432687131
1520527962567712167,-0.0021206349,-0.0961294550,-0.1106009360,-0.4496530257,-1.0719918376,9.0878480107
1520527962572729167,0.0114496313,-0.0970026626,-0.1090095330,-0.4568684320,-1.1799139138,9.1751842782
1520527962577744167,0.0242636212,-0.1010879512,-0.1050062706,-0.3522450410,-1.3537974236,9.2859013120
1520527962582760167,0.0398508172,-0.1031528612,-0.0934172955,-0.2572421916,-1.5792432223,9.3804922526
1520527962587776167,0.0524244423,-0.1069818284,-0.0764251404,-0.2319882697,-1.7003583719,9.3896617013
1520527962592793167,0.0672547936,-0.1113788384,-0.0645820039,-0.2692678688,-1.7998841236,9.4900659933
1520527962597808167,0.0803241125,-0.1189897802,-0.0497840495,-0.2620524625,-1.8478503025,9.5748790452
1520527962602824167,0.0911319184,-0.1263094950,-0.0352502173,-0.1947086706,-1.8274701603,9.6230137293
1520527962607841167,0.0999263463,-0.1342054823,-0.0234225565,-0.2055317800,-1.8070839301,9.6765578180
1520527962612856167,0.1094745413,-0.1412226500,-0.0132129020,-0.1670496132,-1.6835754636,9.7748450503
1520527962617872167,0.1185285401,-0.1427066224,-0.0018778918,-0.1911009674,-1.5348801779,9.8214199116
1520527962622888167,0.1197962348,-0.1412798016,0.0094938176,-0.1923035351,-1.3885849526,9.8445318363
1520527962627903167,0.1223217056,-0.1366370606,0.0171000048,-0.1502136652,-1.2518862224,9.8590967261
1520527962632920167,0.1228406514,-0.1314225363,0.0285020145,-0.0924904150,-1.1511629226,9.9025981291
1520527962637936167,0.1228583167,-0.1262125795,0.0415282331,-0.0383748679,-1.0828161331,9.8741132943
1520527962642951167,0.1198643518,-0.1195534375,0.0570060808,0.0590331169,-1.1199970727,9.8673907145
1520527962647968167,0.1181296880,-0.1140739098,0.0778836205,0.1011229868,-1.1967453379,9.8902987543
1520527962652983167,0.1116177550,-0.1088803531,0.0960623458,0.1384025859,-1.2483112796,9.9050940506
1520527962657999167,0.1061045958,-0.1077628721,0.1131258975,0.1384025859,-1.3190605645,9.9481623679
1520527962663014167,0.0988369199,-0.1034415790,0.1304877161,0.1384025859,-1.3886107091,9.9865809401
1520527962668031167,0.0865364576,-0.1005631522,0.1418957440,0.1227692057,-1.3982026149,9.9995260440
1520527962673047167,0.0732274128,-0.1000154669,0.1530173083,0.1335923151,-1.4161905642,10.0110596781
1520527962678062167,0.0571491138,-0.1015012721,0.1614229859,0.1672642110,-1.4245871696,9.9898215308
1520527962683079167,0.0403108102,-0.1047232964,0.1652174450,0.2466336801,-1.4281907725,9.9774310655
1520527962688094167,0.0219626437,-0.1102806299,0.1703496492,0.3320159877,-1.3682404012,9.8824078792
1520527962693110167,0.0066393820,-0.1120626232,0.1806455248,0.4306265402,-1.3790403451,9.8152163833
1520527962698126167,-0.0081776793,-0.1129782788,0.1939231411,0.4474624882,-1.4461935200,9.7849022527
1520527962703142167,-0.0247572980,-0.1127123316,0.2009903613,0.4017649151,-1.4569822248,9.7318989470
1520527962708175167,-0.0388166246,-0.1069083653,0.2078246069,0.4246137016,-1.5181401659,9.7061690202
1520527962713174167,-0.0546335886,-0.0990610260,0.2130544058,0.3777135608,-1.5517124450,9.7020096831
1520527962718190167,-0.0684357553,-0.0853735535,0.2139961982,0.3223954460,-1.5660978217,9.7397507543
1520527962723205167,-0.0792215324,-0.0667116950,0.2076654433,0.2622670604,-1.5816819643,9.7217569053
1520527962728221167,-0.0889978017,-0.0445513715,0.2008184067,0.1841001590,-1.5804767359,9.7794616184
1520527962733237167,-0.0985133123,-0.0151048795,0.1934853887,0.1600488048,-1.6008602499,9.8424713718
1520527962738253167,-0.1113033523,0.0126095078,0.1796519981,0.1359974505,-1.5852695512,9.9333374999
1520527962743269167,-0.1240955016,0.0397454966,0.1641908860,0.0686536586,-1.5372986893,9.9827562556
1520527962748284167,-0.1371412392,0.0645473970,0.1497946394,0.0566279814,-1.4917304166,9.9979367427
1520527962753302167,-0.1506921227,0.0887721589,0.1332305130,0.0915024451,-1.3850096351,9.9963310809
1520527962758316167,-0.1632469220,0.1048319920,0.1190371864,0.0842870388,-1.3034675243,9.9719167731
1520527962763332167,-0.1788231604,0.1159341929,0.1058938516,0.0662485231,-1.1919460601,9.9266599862
1520527962768348167,-0.1959082503,0.1252831253,0.0943632540,0.0999204191,-1.1451822060,9.8832873141
1520527962773364167,-0.2137504554,0.1296665705,0.0871249984,0.1227692057,-1.0768329814,9.7714324461
1520527962778379167,-0.2273203216,0.1322946411,0.0831120208,0.1251743411,-1.0540495007,9.6807395901
1520527962783397167,-0.2378721870,0.1349158805,0.0820694474,0.1191615025,-1.0300662239,9.5622360453
1520527962788412167,-0.2524349345,0.1448201577,0.0810899186,0.0566279814,-0.9952862814,9.4175428031
1520527962793428167,-0.2617246250,0.1535697056,0.0768451456,-0.0035004042,-0.9629048069,9.3251249674
1520527962798444167,-0.2699975119,0.1684277959,0.0767033789,0.0085252729,-0.9581091818,9.2273831473
1520527962803458167,-0.2719859011,0.1859159073,0.0746761307,-0.0395774356,-0.9856856652,9.1035288413
1520527962808475167,-0.2747272185,0.2042786054,0.0723864060,-0.0780596024,-0.9856826680,8.9876890077
1520527962813491167,-0.2716872985,0.2238098345,0.0698242930,-0.0359697325,-0.9952790695,8.8919928812
1520527962818507167,-0.2626125176,0.2436238846,0.0713113903,-0.0780596024,-1.0240551616,8.7878376664
1520527962823524167,-0.2527845027,0.2619769368,0.0744092473,-0.0648313576,-1.0624286854,8.6831533737
1520527962828539167,-0.2356691275,0.2809192555,0.0761452860,-0.0491979773,-1.1415731709,8.6586733614
1520527962833555167,-0.2160396703,0.2983954380,0.0816531847,0.0097278406,-1.2051322027,8.6372431974
1520527962838570167,-0.1936428484,0.3173259841,0.0885197942,0.0578305492,-1.2986689021,8.6787033860
1520527962843588167,-0.1664695062,0.3356668906,0.0986196406,0.0470074397,-1.3670190633,8.6881725354
1520527962848603167,-0.1408100768,0.3478808469,0.1113810616,0.0193483823,-1.4077876835,8.7314808356
1520527962853619167,-0.1111338649,0.3589388532,0.1211501177,-0.0323620293,-1.4305673242,8.8063835835
1520527962858634167,-0.0832276083,0.3633001536,0.1287069428,-0.1502136652,-1.4545409540,8.9016877261
1520527962863650167,-0.0500493531,0.3647540469,0.1346084604,-0.2151523217,-1.4449427730,9.0452541508
1520527962868666167,-0.0211450637,0.3670906180,0.1367369391,-0.2800909782,-1.4029678005,9.1574111166
1520527962873682167,0.0027342566,0.3685437822,0.1415735420,-0.3366116607,-1.2974390412,9.2670998841
1520527962878696167,0.0306319864,0.3697136930,0.1439655411,-0.4099682912,-1.1859132686,9.3804331076
1520527962883714167,0.0512339192,0.3679807435,0.1412084723,-0.4688941091,-1.0971722879,9.4866752240
1520527962888729167,0.0660518468,0.3645030498,0.1362844325,-0.4845274894,-1.0384131896,9.5774173206
1520527962893746167,0.0831357214,0.3604267192,0.1375743016,-0.4580709997,-0.9832547907,9.6410239372
1520527962898762167,0.0966926189,0.3519877120,0.1353202619,-0.4821223540,-0.9796554962,9.7202803192
1520527962903777167,0.1037035152,0.3342203832,0.1335483101,-0.3931323432,-0.9424890739,9.8402408668
1520527962908793167,0.1107139254,0.3152838741,0.1331201954,-0.4087657235,-0.9233016095,9.8845357933
1520527962913810167,0.1094213556,0.2890602312,0.1323813595,-0.3955374786,-0.9292983419,9.9448443700
1520527962918825167,0.1086358253,0.2654563323,0.1327437816,-0.3197757127,-0.9281051021,9.9592136535
1520527962923841167,0.1038241427,0.2366001091,0.1352380228,-0.3245859836,-0.9652780806,9.9616210112
1520527962928856167,0.0944879364,0.2065751188,0.1382728645,-0.3474347701,-0.9772677053,9.9200179183
1520527962933873167,0.0856582443,0.1797570120,0.1407901350,-0.3738912598,-0.9988501724,9.8435949767
1520527962938889167,0.0730573135,0.1529432558,0.1411500391,-0.3738912598,-0.9604776788,9.7494238975
1520527962943906167,0.0579469109,0.1275803388,0.1434195471,-0.3366116607,-0.9484891780,9.7106985969
1520527962948920167,0.0428446942,0.1092150209,0.1441191338,-0.3438270670,-0.8705444885,9.6258563115
1520527962953937167,0.0302526078,0.0893966787,0.1437207543,-0.3859169369,-0.8297704361,9.5309304267
1520527962958952167,0.0159088196,0.0745289990,0.1441750720,-0.4183862652,-0.7961919754,9.4800793878
1520527962963968167,0.0018226656,0.0643235702,0.1446644923,-0.5037685728,-0.7386265852,9.4820164624
1520527962968984167,-0.0084959819,0.0541261740,0.1427119987,-0.5025660051,-0.7158430108,9.4575775169
1520527962974000167,-0.0205807152,0.0392681216,0.1399155651,-0.4424376194,-0.7218433959,9.4221337921
1520527962979015167,-0.0296450678,0.0276150236,0.1376790765,-0.4592735674,-0.7482231740,9.3723511984
1520527962984032167,-0.0371978953,0.0159501329,0.1400390679,-0.4448427549,-0.7542200000,9.3896487437
1520527962989047167,-0.0424925970,0.0016636676,0.1423748509,-0.4280068069,-0.8009877878,9.3837197574
1520527962994063167,-0.0450190558,-0.0111713479,0.1471515286,-0.3991451818,-0.8309685462,9.3718466299
1520527962999080167,-0.0462913493,-0.0245835412,0.1500276051,-0.4111708589,-0.8897254904,9.3220487881
1520527963004095167,-0.0478065832,-0.0321695992,0.1534897019,-0.4171836975,-0.9472837624,9.3210012977
1520527963009111167,-0.0470612724,-0.0409217661,0.1574797976,-0.4472478903,-0.9820564932,9.3643271613
1520527963014130167,-0.0443005137,-0.0467629423,0.1628411198,-0.4833249217,-0.9976425089,9.3716663781
1520527963019143167,-0.0385252158,-0.0499651792,0.1625353854,-0.5085788436,-1.0048353846,9.3498384652
1520527963024159167,-0.0340039931,-0.0517124426,0.1627841917,-0.5157942499,-1.0216227885,9.3452764905
1520527963029175167,-0.0302333228,-0.0508368122,0.1627838601,-0.5097814114,-1.0348138015,9.3347715323
1520527963034191167,-0.0252080440,-0.0490763378,0.1590002216,-0.4725018123,-1.0144313177,9.2948759024
1520527963039207167,-0.0186780067,-0.0490613947,0.1543888066,-0.4737043800,-0.9916475560,9.3285675646
1520527963044223167,-0.0123924074,-0.0449715372,0.1514322569,-0.4352222132,-0.9796591489,9.3200463018
1520527963049239167,-0.0078662960,-0.0411737534,0.1484767511,-0.4292093746,-0.9089103322,9.3222430734
1520527963054254167,-0.0028368420,-0.0379636407,0.1474096870,-0.4171836975,-0.9017164263,9.3546590375
1520527963059270167,0.0019412740,-0.0329973066,0.1433804233,-0.4039554526,-0.8345655928,9.2905468814
1520527963064285167,0.0057167821,-0.0292107447,0.1444845061,-0.3847143692,-0.8009911596,9.2415168129
1520527963069302167,0.0104972699,-0.0239595819,0.1428923785,-0.3678784212,-0.7602216964,9.2331781769
1520527963074318167,0.0145239946,-0.0181237602,0.1404944596,-0.3967400463,-0.6906693040,9.2217698370
1520527963079334167,0.0198038692,-0.0149106354,0.1383447452,-0.3931323432,-0.6846738829,9.1787295489
1520527963084350167,0.0235735320,-0.0131535671,0.1356456239,-0.3811066661,-0.6810773982,9.1681496947
1520527963089366167,0.0280953310,-0.0128538545,0.1332045329,-0.3390167961,-0.6954703614,9.1259168674
1520527963094382167,0.0318655152,-0.0131474044,0.1345480384,-0.2933192230,-0.7494352395,9.1301732714
1520527963099398167,0.0338742710,-0.0169462705,0.1388441389,-0.2812935459,-0.7998000739,9.1428889166
1520527963104414167,0.0371413675,-0.0198726760,0.1439562126,-0.2897115199,-0.8309770693,9.1476498306
1520527963109429167,0.0396540892,-0.0210416001,0.1455659284,-0.2512293531,-0.8381749089,9.1391472772
1520527963114445167,0.0414096094,-0.0265903287,0.1503902489,-0.2416088114,-0.8369765178,9.1437010432
1520527963119461167,0.0401484852,-0.0338929165,0.1568301069,-0.2067343477,-0.8153947063,9.1049897979
1520527963124477167,0.0383853828,-0.0394415666,0.1611198696,-0.1526188006,-0.7794247083,9.1369680209
1520527963129492167,0.0366261969,-0.0417835301,0.1648929946,-0.2091394831,-0.7194632851,9.1258382521
1520527963134509167,0.0378840475,-0.0435437283,0.1694766027,-0.2067343477,-0.6343245024,9.0978403640
1520527963139524167,0.0373881302,-0.0412245039,0.1738240551,-0.2247728634,-0.5287987402,9.1536959478
1520527963144541167,0.0378979414,-0.0365650683,0.1749408746,-0.2897115199,-0.4184727636,9.1065725395
1520527963149557167,0.0401738855,-0.0260743392,0.1750167052,-0.3426244993,-0.3441219363,9.1186365025
1520527963154572167,0.0401898142,-0.0135411624,0.1737595684,-0.4195888329,-0.2973494656,9.1146914461
1520527963159587167,0.0417118657,-0.0015872501,0.1714130015,-0.3919297755,-0.2889576368,9.1039547488
1520527963164603167,0.0429829242,0.0097801524,0.1704151846,-0.3582578795,-0.3057482252,9.1849934548
1520527963169620167,0.0457620775,0.0190982560,0.1731866483,-0.2824961136,-0.3069532662,9.2156350923
1520527963174636167,0.0450218554,0.0260773491,0.1783817746,-0.2295831342,-0.3441307404,9.1988863040
1520527963179651167,0.0467928574,0.0301362972,0.1862554617,-0.2211651602,-0.3789064683,9.2685669167
1520527963184667167,0.0468064338,0.0333109329,0.1976428432,-0.2307857020,-0.4088842296,9.3279591323
1520527963189683167,0.0448046602,0.0373793306,0.2014653428,-0.2428113791,-0.4076841525,9.3675879079
1520527963194699167,0.0450591306,0.0411739838,0.1990588631,-0.2704704365,-0.4568467557,9.3806886507
1520527963199716167,0.0465696993,0.0446777447,0.1966478267,-0.2752807073,-0.4700369257,9.4283962357
1520527963204731167,0.0475668970,0.0423630878,0.1906761654,-0.2680653011,-0.4628426452,9.5143176420
1520527963209746167,0.0505708746,0.0362561207,0.1865656915,-0.2812935459,-0.4556467724,9.6271673451
1520527963214763167,0.0513064353,0.0266582090,0.1799978280,-0.2584447593,-0.4292674626,9.6094870643
1520527963219779167,0.0535485110,0.0153089387,0.1747665552,-0.2524319208,-0.3944928586,9.6698261138
1520527963224794167,0.0550395011,0.0042427448,0.1725149104,-0.2668627333,-0.3872968922,9.7292289001
1520527963229811167,0.0580349910,-0.0068119318,0.1662022769,-0.2752807073,-0.3633134281,9.7722867750
1520527963234826167,0.0640533236,-0.0134990297,0.1615406643,-0.2897115199,-0.2829698958,9.7897810492
1520527963239843167,0.0693233893,-0.0166927223,0.1579893126,-0.3185731450,-0.1942312566,9.8318126218
1520527963244858167,0.0755964511,-0.0213422153,0.1541544326,-0.3330039576,-0.1426670945,9.8319028009
1520527963249875167,0.0811221242,-0.0225012168,0.1525119970,-0.3738912598,-0.0143558847,9.8507699568
1520527963254890167,0.0841366125,-0.0224963932,0.1511536668,-0.3871195046,0.0623901326,9.8368781473
1520527963259905167,0.0884079477,-0.0219068514,0.1492563574,-0.3943349109,0.1319408391,9.8438534197
1520527963264922167,0.0939378000,-0.0201527360,0.1479066985,-0.3979426141,0.1966947030,9.9030947322
1520527963269938167,0.0949438382,-0.0169354575,0.1436005512,-0.4268042392,0.1787098445,9.8615560113
1520527963274954167,0.0969490069,-0.0157465504,0.1352187870,-0.4352222132,0.1631216746,9.8279509734
1520527963279970167,0.0992090341,-0.0133985626,0.1292803615,-0.4400324840,0.1211521344,9.8489573117
1520527963284985167,0.0977030564,-0.0078439081,0.1222912071,-0.4905403280,0.0923766980,9.8204233893
1520527963290001167,0.0976971797,-0.0051901248,0.1106777414,-0.4785146508,0.0480075657,9.7680531264
1520527963295017167,0.0981953944,-0.0022484023,0.1004182948,-0.4688941091,0.0312188505,9.8098130390
1520527963300033167,0.0966826500,0.0015725137,0.0880048840,-0.4725018123,0.0564010804,9.7249870894
1520527963305049167,0.0964288186,0.0068493877,0.0761413468,-0.4809197862,0.1115621955,9.7145559396
1520527963310064167,0.0934134288,0.0144577118,0.0637596365,-0.4219939683,0.1559258018,9.6628047923
1520527963315081167,0.0924045522,0.0171038169,0.0548534966,-0.3955374786,0.1847031114,9.6578706411
1520527963320097167,0.0906457349,0.0211999934,0.0483947854,-0.3005346293,0.2170725037,9.6348336344
1520527963325112167,0.0878839529,0.0220686934,0.0500298640,-0.2560396239,0.3177968339,9.5552765339
1520527963330129167,0.0866256122,0.0211962329,0.0492138906,-0.3065474679,0.3789569292,9.5498977902
1520527963335144167,0.0820925577,0.0153725976,0.0470134628,-0.3690809889,0.5060706844,9.5817603899
1520527963340161167,0.0790646186,0.0098511356,0.0410248151,-0.4051580203,0.6427755025,9.5366546227
1520527963345176167,0.0737741079,0.0028682227,0.0363819820,-0.4436401871,0.8334418269,9.5589239947
1520527963350193167,0.0672254329,-0.0046950378,0.0306548528,-0.4304119423,1.0624766175,9.5434640239
1520527963355208167,0.0616855679,-0.0070013281,0.0206371379,-0.4460453226,1.2675308475,9.5376055129
1520527963360223167,0.0624377120,-0.0055317268,0.0160475729,-0.4280068069,1.5073575273,9.5569525164
1520527963365240167,0.0647032357,-0.0002749927,0.0120251995,-0.3366116607,1.5972859409,9.6477846040
1520527963370255167,0.0649719960,0.0107897050,0.0150852149,-0.1838855611,1.6608284885,9.7450183230
1520527963375271167,0.0644920858,0.0221294665,0.0241008632,-0.0624262221,1.7567502627,9.7716340201
1520527963380287167,0.0725752007,0.0439471213,0.0388621378,0.0253612209,1.7195700724,9.8382201498
1520527963385304167,0.0809210895,0.0712880689,0.0585350105,-0.0576159513,1.6116538968,9.9762660258
1520527963390319167,0.0829804225,0.0980547124,0.0741569166,-0.1778727226,1.5205285907,10.0553890462
1520527963395336167,0.0890572006,0.1251266992,0.0851742980,-0.2945217907,1.3874330887,10.1705443408
1520527963400352167,0.0923577774,0.1466758655,0.0907436569,-0.3221808481,1.2279495665,10.2093198297
1520527963405367167,0.0961525151,0.1659116349,0.0898011961,-0.3570553118,1.0804580106,10.2655860149
1520527963410382167,0.0966731937,0.1787305657,0.0907097161,-0.3762963952,0.9713377306,10.2647175617
1520527963415399167,0.0931611220,0.1819285896,0.0929050713,-0.3354090930,0.8262385550,10.1784624272
1520527963420415167,0.0883878478,0.1813366656,0.0956149518,-0.3101551710,0.7482924606,10.1678333325
1520527963425429167,0.0818508125,0.1751982768,0.1018029574,-0.2560396239,0.7183097353,10.1278229440
1520527963430446167,0.0712858216,0.1626427541,0.1098433440,-0.1959112383,0.7518809842,10.0690977520
1520527963435462167,0.0634799702,0.1463003155,0.1178496965,-0.1454033943,0.7434830675,10.0546685975
1520527963440478167,0.0488911597,0.1305336171,0.1274963721,-0.0924904150,0.7866480017,10.0599221986
1520527963445494167,0.0343019924,0.1127192142,0.1401034910,-0.0540082481,0.8597925704,10.0048555413
1520527963450510167,0.0219788662,0.0966474487,0.1551546609,-0.0299568939,0.8717821014,9.9511511249
1520527963455526167,0.0076492307,0.0870013807,0.1643064628,-0.0852750087,0.8993666395,9.9574733824
1520527963460541167,-0.0089368528,0.0834836997,0.1697215074,-0.1165417692,0.9533303937,9.9484279420
1520527963465558167,-0.0227533683,0.0843400549,0.1743531267,-0.1598342069,0.9761174335,9.9534756824
1520527963470573167,-0.0343079238,0.0878306834,0.1749423648,-0.1718598840,1.0108934424,9.9303159430
1520527963475589167,-0.0451047133,0.0933576568,0.1768984938,-0.2560396239,1.0420776496,9.9392399018
1520527963480605167,-0.0561519588,0.1021014165,0.1745508091,-0.3426244993,1.0085084613,9.9482504151
1520527963485622167,-0.0629246975,0.1152292727,0.1678998021,-0.4388299163,0.9941262690,9.9189851089
1520527963490637167,-0.0699553722,0.1257447677,0.1574416114,-0.5446558750,0.9869396685,9.9304814655
1520527963495653167,-0.0810006222,0.1417993641,0.1454098516,-0.6985845423,0.9893499379,9.8785187521
1520527963500669167,-0.0867775548,0.1575930523,0.1228147776,-0.7851694176,0.9665730133,9.8921673171
1520527963505685167,-0.0913092959,0.1666926730,0.0974607801,-0.8236515844,0.9521863254,9.9297445175
1520527963510700167,-0.0935839696,0.1714180412,0.0736925111,-0.8116259073,0.9210077378,9.9726571961
1520527963515717167,-0.0956143386,0.1714835408,0.0490765684,-0.7911822562,0.8862310733,10.0050321517
1520527963520733167,-0.0963920044,0.1660008433,0.0290153336,-0.7671309019,0.8862292001,10.0059601945
1520527963525747167,-0.0961682621,0.1564333288,0.0110854759,-0.7466872508,0.8814310461,10.0545759320
1520527963530765167,-0.0987131625,0.1436595015,-0.0068637017,-0.6721280526,0.8850226605,10.0491981346
1520527963535780167,-0.0937179651,0.1276651873,-0.0180876876,-0.5506687136,0.8706235158,10.0457056681
1520527963540796167,-0.0892303442,0.1052478333,-0.0247603677,-0.4015503172,0.8957938508,10.0849047234
1520527963545812167,-0.0847419393,0.0804862912,-0.0265810063,-0.3173705773,0.9293632265,10.0422154456
1520527963550828167,-0.0782359420,0.0559943400,-0.0200162329,-0.3161680096,0.9737313285,10.0770247936
1520527963555844167,-0.0714775403,0.0344258021,-0.0169467920,-0.3149654419,1.0936452772,10.0978147458
1520527963560859167,-0.0642114797,0.0172311428,-0.0149271218,-0.2740781396,1.2171535563,10.0798641726
1520527963565876167,-0.0541731304,0.0038160957,-0.0093665889,-0.2247728634,1.3454577416,10.1036641690
1520527963570891167,-0.0463929539,-0.0081480139,-0.0018969187,-0.1995189414,1.4605732554,10.0951710986
1520527963575906167,-0.0370950071,-0.0163395594,0.0115508609,-0.1177443369,1.5169264864,10.1117523551
1520527963580924167,-0.0280345945,-0.0166740191,0.0288467732,-0.1670496132,1.6212555433,10.0458883246
1520527963585939167,-0.0192132922,-0.0073899741,0.0451343303,-0.2007215091,1.7063971358,10.0275387398
1520527963590955167,-0.0071233409,0.0048164803,0.0587325920,-0.2392036759,1.7243872393,9.9965178747
1520527963595970167,0.0019560896,0.0228589135,0.0688638194,-0.2752807073,1.7555677001,10.0072979192
1520527963600987167,0.0087806091,0.0470246346,0.0771521108,-0.3787015306,1.7519783336,10.0257402214
1520527963606003167,0.0176082234,0.0685810660,0.0808173805,-0.4352222132,1.7651732803,10.0762496863
1520527963611018167,0.0254306462,0.0916005820,0.0820607194,-0.4628812706,1.8071453493,10.1136665823
1520527963616035167,0.0307371797,0.1134579460,0.0816765578,-0.3895246401,1.8563043934,10.0919860398
1520527963621049167,0.0335224057,0.1277317718,0.0836741763,-0.3354090930,1.8682915829,10.1170147858
1520527963626065167,0.0390649210,0.1358832350,0.0872432514,-0.2632550302,1.8658876825,10.0965583739
1520527963631082167,0.0428427538,0.1387839885,0.0926693993,-0.2139497540,1.8982606338,10.1030197581
1520527963636098167,0.0440990167,0.1343947737,0.0996679127,-0.1959112383,1.8934626672,10.0737952608
1520527963641114167,0.0420808322,0.1262242928,0.1036675886,-0.2416088114,1.8994619284,10.1195578205
1520527963646130167,0.0438291781,0.1142600056,0.1103368224,-0.1923035351,1.9594151096,10.0934522792
1520527963651146167,0.0420525307,0.1008534428,0.1110494652,-0.2596473271,2.0673429926,10.1009753855
1520527963656162167,0.0402752247,0.0874490654,0.1109504704,-0.3125603064,2.1309015561,10.0874827056
1520527963661177167,0.0357326239,0.0749250428,0.1081578197,-0.3546501764,2.2388274723,10.1191650288
1520527963666193167,0.0337074573,0.0664850304,0.1040388956,-0.3871195046,2.3563457626,10.1937436832
1520527963671210167,0.0319322761,0.0595129654,0.0958724318,-0.4448427549,2.4235021220,10.1988886187
1520527963676225167,0.0294023674,0.0537141560,0.0847402556,-0.4785146508,2.5254316805,10.2339812850
1520527963681240167,0.0286345809,0.0481986791,0.0768535861,-0.4941480311,2.5626062512,10.3305551495
1520527963686256167,0.0318855096,0.0418135377,0.0678705963,-0.4700966768,2.5817906248,10.3779502410
1520527963691274167,0.0341353712,0.0357070036,0.0634909766,-0.4388299163,2.6153641215,10.3392624176
1520527963696288167,0.0378929356,0.0287232645,0.0604546169,-0.4135759943,2.5925784865,10.3030123663
1520527963701305167,0.0431593436,0.0205658369,0.0606531152,-0.3787015306,2.5266230471,10.2818186421
1520527963706321167,0.0471685950,0.0109466238,0.0624661071,-0.3606630150,2.4522749360,10.2619591181
1520527963711336167,0.0526818090,-0.0024643681,0.0658706739,-0.3245859836,2.4031073688,10.1907651281
1520527963716353167,0.0591976230,-0.0176225448,0.0689894894,-0.2981294939,2.3083732148,10.1778164111
1520527963721369167,0.0649589211,-0.0345351515,0.0742607337,-0.2800909782,2.2436182271,10.2300004576
1520527963726383167,0.0712199589,-0.0529015703,0.0784377456,-0.2824961136,2.2184364655,10.2660748864
1520527963731400167,0.0754710452,-0.0712702335,0.0831595831,-0.2933192230,2.2124416063,10.2836182379
1520527963736416167,0.0802188367,-0.0928388306,0.0859622119,-0.3065474679,2.2076460749,10.3662638916
1520527963741432167,0.0834558519,-0.1135200247,0.0836339383,-0.3245859836,2.2508165350,10.4140452734
1520527963746448167,0.0859394998,-0.1333251752,0.0805020964,-0.3414219315,2.3047791653,10.4327508272
1520527963751464167,0.0904298101,-0.1516536763,0.0703434428,-0.3257885513,2.3275616158,10.4779000582
1520527963756479167,0.0961870428,-0.1618207330,0.0594330644,-0.3017371970,2.3623348149,10.4939020616
1520527963761494167,0.1016974146,-0.1708318197,0.0520491416,-0.2500267854,2.3563350854,10.4515674085
1520527963766511167,0.1072143413,-0.1751814824,0.0449713341,-0.2355959728,2.3395459955,10.4340111593
1520527963771528167,0.1114800507,-0.1766221627,0.0395413665,-0.1634419100,2.2687910910,10.3741085052
1520527963776543167,0.1185184448,-0.1739918462,0.0376544847,-0.1093263629,2.1464745531,10.3318638679
1520527963781559167,0.1265624694,-0.1728260712,0.0387306255,-0.0804647378,2.0373505267,10.3026357576
1520527963786575167,0.1333519325,-0.1713745030,0.0417051443,-0.0684390607,1.9546089009,10.3351394222
1520527963791591167,0.1383812963,-0.1690421861,0.0419841404,-0.0708441961,1.8682709777,10.3782463510
1520527963796607167,0.1461729714,-0.1667022303,0.0398230895,-0.1526188006,1.7963289212,10.4244360694
1520527963801622167,0.1519459446,-0.1690186587,0.0351952899,-0.1947086706,1.7807433738,10.4643738423
1520527963806639167,0.1559576697,-0.1730848119,0.0308279648,-0.2524319208,1.7759513078,10.4672646502
1520527963811654167,0.1559435602,-0.1785992650,0.0226693493,-0.2945217907,1.7879459901,10.4967162327
1520527963816671167,0.1556678686,-0.1872993787,0.0071820074,-0.3726886921,1.8323202737,10.5718110088
1520527963821686167,0.1569018635,-0.1939562963,-0.0093747568,-0.4448427549,1.8922829144,10.6049948760
1520527963826701167,0.1548699891,-0.1985689746,-0.0280742592,-0.5037685728,1.8731012570,10.6799643463
1520527963831719167,0.1530830860,-0.2049167499,-0.0516573929,-0.5181993853,1.8659075384,10.7672726195
1520527963836735167,0.1512975472,-0.2100982586,-0.0755021803,-0.4785146508,1.8419216391,10.7924769064
1520527963841750167,0.1480057993,-0.2141148200,-0.0993352749,-0.3955374786,1.8023435426,10.8974629456
1520527963846765167,0.1439675801,-0.2164001235,-0.1169310752,-0.3101551710,1.7747566630,10.9919545856
1520527963851781167,0.1424487629,-0.2175349298,-0.1285706408,-0.2019240768,1.7339774592,10.9990758958
1520527963856797167,0.1404304257,-0.2172166525,-0.1388454279,-0.0708441961,1.7183784248,11.0489495800
1520527963861812167,0.1354053312,-0.2157580569,-0.1401777075,-0.0167286490,1.7087810867,11.1495387312
1520527963866830167,0.1311446438,-0.2081873751,-0.1387592435,0.0626408200,1.7123723264,11.2010591674
1520527963871845167,0.1246251250,-0.1991635704,-0.1362432800,0.0313740595,1.7543446764,11.1769175490
1520527963876860167,0.1201169180,-0.1904347333,-0.1321099980,-0.0576159513,1.7975206625,11.1347423006
1520527963881877167,0.1128441652,-0.1799499308,-0.1312047943,-0.1177443369,1.8442918220,11.1097147822
1520527963886894167,0.1058174383,-0.1709110260,-0.1343693611,-0.1730624517,1.8910626069,11.0590732766
1520527963891908167,0.0942621458,-0.1639055724,-0.1405170934,-0.2043292123,1.8886667612,10.9791920139
1520527963896924167,0.0826979657,-0.1636026914,-0.1464454108,-0.2464190822,1.9234451115,10.9284334460
1520527963901940167,0.0698831407,-0.1598073304,-0.1509919880,-0.2957243585,1.9222498112,10.8905637722
1520527963906957167,0.0583263075,-0.1542602563,-0.1566097439,-0.2824961136,1.8754823044,10.8602648780
1520527963911972167,0.0432534939,-0.1457948878,-0.1643631020,-0.3125603064,1.8658915225,10.8501075635
1520527963916988167,0.0276786512,-0.1382096973,-0.1699578288,-0.2608498948,1.8287141420,10.8333704803
1520527963922004167,0.0123530843,-0.1317884896,-0.1761030064,-0.1802778580,1.8275087264,10.7593723417
1520527963927019167,-0.0024692302,-0.1268327488,-0.1790136821,-0.0684390607,1.8215043139,10.7083174281
1520527963932036167,-0.0205451943,-0.1148974425,-0.1772656562,0.0049175698,1.8442822687,10.7157162099
1520527963937051167,-0.0343427506,-0.1012252671,-0.1706423999,0.0842870388,1.9210210742,10.7183552703
1520527963942067167,-0.0473784090,-0.0837742671,-0.1604745470,0.1047306900,1.9797773627,10.7285582824
1520527963947083167,-0.0591521630,-0.0628283458,-0.1494707130,0.1275794765,2.0445291661,10.6445983773
1520527963952100167,-0.0679074653,-0.0375002771,-0.1422267760,0.0446023043,2.1428651433,10.5965000943
1520527963957116167,-0.0769171438,-0.0136255873,-0.1363462172,-0.0504005450,2.2220158104,10.5543482910
1520527963962130167,-0.0846729197,0.0099654945,-0.1331756740,-0.1538213683,2.3095611161,10.5238916773
1520527963967147167,-0.0899195766,0.0315215114,-0.1313780891,-0.2223677280,2.3299518419,10.3932167200
1520527963972163167,-0.0949215760,0.0490018855,-0.1309648236,-0.2584447593,2.3539374602,10.3842473332
1520527963977178167,-0.0969088714,0.0650228763,-0.1292155448,-0.2897115199,2.3275588060,10.3776045264
1520527963982195167,-0.0994112981,0.0737677981,-0.1307674603,-0.3414219315,2.2244367570,10.2782640270
1520527963987211167,-0.1054419839,0.0749346154,-0.1321000961,-0.3835118015,2.1345045033,10.3322200263
1520527963992226167,-0.1074582198,0.0729043341,-0.1358995665,-0.4015503172,1.9714228106,10.3499867916
1520527963997243167,-0.1112357901,0.0697100108,-0.1405162998,-0.3762963952,1.8323205546,10.3847409474
1520527964002259167,-0.1119956181,0.0682659046,-0.1453958412,-0.3378142284,1.7160009365,10.4414248652
1520527964007275167,-0.1142665833,0.0641980184,-0.1500220441,-0.3510424732,1.5900922223,10.4440006894
1520527964012289167,-0.1152786393,0.0601226118,-0.1516745758,-0.2488242176,1.5013478698,10.4698216017
1520527964017307167,-0.1132759405,0.0572219375,-0.1562998206,-0.2211651602,1.4737654859,10.4474985450
1520527964022322167,-0.1112655499,0.0572227252,-0.1563035544,-0.2055317800,1.4497814599,10.4613154935
1520527964027337167,-0.1079903499,0.0633430802,-0.1562629370,-0.1682521809,1.4437828543,10.4876877944
1520527964032354167,-0.1052174339,0.0718037841,-0.1597206982,-0.1526188006,1.4701627260,10.5002934867
1520527964037370167,-0.0974093519,0.0849191399,-0.1596351278,-0.1995189414,1.4401878682,10.4786984823
1520527964042386167,-0.0926257317,0.0957211773,-0.1665959346,-0.2355959728,1.4102121674,10.4848895872
1520527964047400167,-0.0875900207,0.1071060822,-0.1735527621,-0.2428113791,1.3646453933,10.5454357381
1520527964052416167,-0.0813028728,0.1155812762,-0.1818868834,-0.2536344885,1.3310703043,10.6222753261
1520527964057433167,-0.0762760455,0.1217270870,-0.1910480936,-0.2608498948,1.3310708663,10.7199656485
1520527964062449167,-0.0709929992,0.1287347666,-0.1956038209,-0.2319882697,1.2843021419,10.7778375291
1520527964067465167,-0.0697264688,0.1380683049,-0.1987815666,-0.2512293531,1.2651173937,10.7733949436
1520527964072481167,-0.0694695363,0.1430255825,-0.2000969703,-0.2836986813,1.2567259396,10.7725570216
1520527964077496167,-0.0684578292,0.1479802417,-0.2003315907,-0.2367985405,1.2447308826,10.7523557706
1520527964082513167,-0.0722321063,0.1447749919,-0.2008901356,-0.2512293531,1.2303423215,10.6653494667
1520527964087528167,-0.0762566316,0.1403953644,-0.1982105553,-0.2548370562,1.2267451812,10.5352279671
1520527964092544167,-0.0850616838,0.1325208941,-0.1969015138,-0.2271779988,1.1991627972,10.4141226743
1520527964097560167,-0.0938727657,0.1193978601,-0.1942797584,-0.1442008266,1.1547881390,10.2553067132
1520527964102576167,-0.1046937992,0.1062725816,-0.1911131774,-0.1201494724,1.1236086148,10.1400507634
1520527964107592167,-0.1160108322,0.0975156888,-0.1871006789,-0.0395774356,1.0996195311,10.0219133721
1520527964112607167,-0.1280769631,0.0934257521,-0.1849450323,0.0301714918,1.1176012052,9.9503261575
1520527964117624167,-0.1393790868,0.0936930385,-0.1776170674,0.0842870388,1.1283892543,9.8184666391
1520527964122640167,-0.1519362541,0.0945404164,-0.1694706851,0.1143512317,1.0984084022,9.7391774573
1520527964127654167,-0.1597077940,0.1014999988,-0.1580399350,0.1372000182,1.0852160781,9.7041036053
1520527964132671167,-0.1697388632,0.1116712093,-0.1492859895,0.1720744819,1.0456417279,9.6340741096
1520527964137688167,-0.1787647409,0.1203793350,-0.1381101131,0.1263769088,0.9916839680,9.5671671727
1520527964142703167,-0.1847775810,0.1285117006,-0.1291086508,0.0999204191,0.9149410414,9.5616888018
1520527964147719167,-0.1890318546,0.1372318951,-0.1217292848,0.0073227052,0.8166187385,9.4999302035
1520527964152735167,-0.1915322623,0.1456774196,-0.1203074186,-0.0335645970,0.7830459911,9.4457401510
1520527964157751167,-0.1920297987,0.1500509044,-0.1213553224,-0.1586316392,0.6727348128,9.4238221770
1520527964162767167,-0.1880050068,0.1556004406,-0.1256492857,-0.2692678688,0.6211803913,9.4481922029
1520527964167783167,-0.1804700290,0.1588363044,-0.1359195775,-0.2897115199,0.5971991750,9.5181432129
1520527964172798167,-0.1714383451,0.1539139922,-0.1462549161,-0.3125603064,0.6019975162,9.4800101811
1520527964177814167,-0.1609074421,0.1446302440,-0.1598729520,-0.2476216499,0.6355683905,9.4828317984
1520527964182831167,-0.1471119400,0.1344772644,-0.1748564540,-0.1959112383,0.6991188055,9.4834286500
1520527964187846167,-0.1300500471,0.1202294273,-0.1836545910,-0.1466059620,0.7063098080,9.4794552948
1520527964192863167,-0.1099729681,0.1042279086,-0.1900367542,-0.0888827118,0.6727293805,9.4614940343
1520527964197878167,-0.0919061975,0.0861764411,-0.1929136485,0.0025124344,0.6103669603,9.3967473381
1520527964202894167,-0.0710591248,0.0800735505,-0.1959750762,-0.0395774356,0.5252312683,9.3716728712
1520527964207910167,-0.0489486581,0.0762898452,-0.1944217726,-0.0443877064,0.4293004091,9.3369489199
1520527964212926167,-0.0255766321,0.0783437923,-0.1963434375,-0.0768570347,0.3309734232,9.3443337060
1520527964217942167,-0.0039547632,0.0882702598,-0.2003661793,-0.1429982589,0.2542335874,9.2718372527
1520527964222957167,0.0191807008,0.1005196532,-0.2011273859,-0.1983163737,0.1726963470,9.1806458280
1520527964227972167,0.0370350240,0.1121944079,-0.2056708801,-0.3330039576,0.1151480966,9.1506350358
1520527964232990167,0.0556393820,0.1247603656,-0.2164316608,-0.4424376194,0.0731867048,9.1261739558
1520527964238006167,0.0724789283,0.1329541377,-0.2269519748,-0.5013634374,0.0947758218,9.0384035150
1520527964243022167,0.0865442023,0.1344478964,-0.2386004694,-0.5386430365,0.0995752869,9.0236538230
1520527964248037167,0.0950705638,0.1286563327,-0.2508353650,-0.5675046616,0.0851878497,8.9402744117
1520527964253053167,0.1028326869,0.1141178388,-0.2612417317,-0.6420638598,0.0720031119,8.9038243814
1520527964258068167,0.1088230473,0.0902543509,-0.2717159701,-0.6637100786,0.0288357426,8.8622399863
1520527964263084167,0.1115416302,0.0593810574,-0.2765560313,-0.6216202087,-0.0227305737,8.8769884623
1520527964268100167,0.1134922895,0.0209438540,-0.2860517729,-0.6817485943,-0.0694923673,8.8462414326
1520527964273116167,0.1126673982,-0.0259453120,-0.2953363040,-0.7057999486,-0.0982698642,8.8290714385
1520527964278131167,0.1146109262,-0.0710909153,-0.3024482634,-0.6180125055,-0.0934801397,8.7770779581
1520527964283148167,0.1190715707,-0.1159565329,-0.3049633867,-0.5771252033,-0.1270592560,8.7093083783
1520527964288164167,0.1212845097,-0.1529665807,-0.3033560978,-0.4785146508,-0.1954179403,8.6096329799
1520527964293180167,0.1275281723,-0.1829832815,-0.3011618306,-0.4111708589,-0.3261294914,8.5544841889
1520527964298195167,0.1327935531,-0.1975766639,-0.2915431338,-0.3305988221,-0.3884910686,8.5595714755
1520527964303213167,0.1410912836,-0.1993457602,-0.2826438596,-0.2644575979,-0.4496523815,8.5020422799
1520527964308227167,0.1529274780,-0.1868385501,-0.2725600048,-0.2416088114,-0.5084120418,8.5344172122
1520527964313243167,0.1645294430,-0.1620947451,-0.2618412219,-0.2560396239,-0.6031430113,8.4974614442
1520527964318259167,0.1771354155,-0.1382246999,-0.2511309751,-0.3330039576,-0.6463060723,8.5377655584
1520527964323276167,0.1837124664,-0.1102667078,-0.2444365922,-0.4063605880,-0.6594909037,8.5814917559
1520527964328290167,0.1910410498,-0.0796662919,-0.2450283409,-0.5278199271,-0.6522866015,8.6489091560
1520527964333307167,0.1940780255,-0.0610033889,-0.2497614903,-0.5963662867,-0.5923242417,8.7029764991
1520527964338323167,0.1940817813,-0.0522349012,-0.2597049958,-0.5578841199,-0.5611495878,8.7269765575
1520527964343339167,0.1933205498,-0.0530889541,-0.2672855500,-0.4628812706,-0.4940051233,8.8131471716
1520527964348355167,0.1867688365,-0.0638618149,-0.2714138578,-0.3366116607,-0.4316596555,8.8827481163
1520527964353371167,0.1789587708,-0.0798975719,-0.2690867460,-0.2223677280,-0.3669149704,8.8943565751
1520527964358386167,0.1721549079,-0.0968143730,-0.2640627114,-0.1478085298,-0.3897044453,8.9645438602
1520527964363403167,0.1656004934,-0.1160665224,-0.2574336528,-0.1105289307,-0.4592574934,8.9967888559
1520527964368418167,0.1582941191,-0.1335692032,-0.2513309474,-0.1213520401,-0.5276076545,9.0341494603
1520527964373433167,0.1545186815,-0.1437953620,-0.2416621023,-0.0852750087,-0.5695803792,9.0303528036
1520527964378448167,0.1509921749,-0.1528427725,-0.2368546577,-0.0491979773,-0.6163496655,9.0811815901
1520527964383465167,0.1489784283,-0.1598571849,-0.2293289928,-0.0119183782,-0.6523267816,9.0762052377
1520527964388482167,0.1512515379,-0.1584306987,-0.2176886044,0.0181458146,-0.7026930209,9.0829345873
1520527964393498167,0.1552876989,-0.1540896780,-0.2060292522,0.0554254137,-0.7074924861,9.0953599914
1520527964398513167,0.1618444538,-0.1462605281,-0.1908307935,0.0169432469,-0.6859049613,9.0097148525
1520527964403530167,0.1658923172,-0.1334700845,-0.1788364259,-0.0203363522,-0.6871011983,8.9938088632
1520527964408545167,0.1711942559,-0.1221346145,-0.1673965991,-0.1405931235,-0.6007537218,8.9530579941
1520527964413562167,0.1747306419,-0.1131199834,-0.1600294784,-0.2716730042,-0.5683667214,8.9403565456
1520527964418578167,0.1797595706,-0.1093227312,-0.1627153717,-0.4520581611,-0.5431707236,8.9781142105
1520527964423592167,0.1825195100,-0.1095999209,-0.1675925549,-0.5699097970,-0.5323692811,9.0373579797
1520527964428608167,0.1835164019,-0.1113281666,-0.1749124995,-0.5903534481,-0.5347659697,9.1038015097
1520527964433625167,0.1819901478,-0.1185849617,-0.1855165662,-0.6685203495,-0.6091065881,9.1429855879
1520527964438641167,0.1791942073,-0.1331159358,-0.2002320649,-0.6829511620,-0.6582702215,9.2059297650
1520527964443658167,0.1774053518,-0.1470673892,-0.2135922548,-0.6516844015,-0.7050391332,9.3160747135
